timestamp,accel_x,accel_y,accel_z,gyro_x,gyro_y,gyro_z,mag_x,mag_y,mag_z
0.0,1.0352358539877216,-0.06199920531202478,9.874172559790322,0.005702823581956069,-0.010755175943269184,-0.0045108975343115905,,,
0.01,1.0263920201583643,-0.02581212961717911,9.835809942124785,-0.0032652196378679006,0.0033969898743141432,0.005888959677144742,,,
0.02,1.0233015348780607,0.046362060348401644,9.860025467112601,-0.003296462314416191,0.0008437539204124943,-0.002794413004144994,,,
0.03,1.0639225150653637,-0.012496295549312645,9.827406881822736,-0.002404647722019707,0.005112706693370151,0.001227352589655989,,,
0.04,0.9985836088918446,-0.027606677524411483,9.863265459277667,0.0028272203218203916,0.0010636630579799419,0.004154105015039414,,,
0.05,1.127082380043523,-0.03032075081923078,9.811037863546423,-0.0030688636412393886,0.0020798971128774785,0.007644861463604458,,,
0.06,1.0143026271172562,-0.052007823848126404,9.795425939215438,0.004252963939123506,0.0027162708560172113,0.004715771341525975,,,
0.07,0.9867245146355653,0.0016080661533359897,9.842484290457035,0.0020934429836450648,0.0033571438897409493,0.0031179777438734117,,,
0.08,1.0539456781535947,-0.0066210465255554275,9.851105969934498,0.004156441129192702,-0.008285779099278332,0.0004016439182134932,,,
0.09,0.9964813672853603,-0.0419438924121671,9.822892887438664,0.008474706556171979,-0.005329155578466216,0.006841391772957404,,,
0.1,0.9358565114192098,-0.026744251499288746,9.84478765325525,0.003931111656796391,0.002556132898964275,0.005966736175999627,,,
0.11,1.002563746387578,-0.03311758963322836,9.879548794062856,4.3478375591925514e-05,-0.0073784316166896095,-0.0036664360700174037,,,
0.12,0.9740273856999194,0.014858037202688202,9.843771286803527,0.004452426770338841,-0.0031362632316826716,0.0027926984553835713,,,
0.13,1.0512795196983669,-0.025467326986011923,9.85948876187787,-0.0023096297053332563,-0.0028152692328253593,9.131053000835452e-05,,,
0.14,0.9602080177205481,0.014348624039279093,9.813179882989862,0.0010624705936384373,0.0014037332945295447,0.0042326558801497206,,,
0.15,1.0532692554486394,-0.014924274225471181,9.81548508439779,0.0006014089454680048,-0.00943667216979015,-0.005235562362115437,,,
0.16,0.9538650193822799,-0.05986234138007409,9.85663871133617,-0.003527395276800304,-0.0028908127701969483,0.008496141488930327,,,
0.17,1.0021868014469286,0.026875778423354327,9.789969115999504,-2.7187789338150095e-05,-0.005750110274552907,0.0003048346204971876,,,
0.18,1.0620154068728698,-0.09636602115961744,9.858371182177292,0.002188678011661389,-0.003970749778483973,-0.005230289271942273,,,
0.19,1.0236064753856935,-0.03647463545319012,9.848283810567734,0.0011092607276172145,0.007008894456604578,0.0008032218626348787,,,
0.2,0.9688251253689067,-0.0010362182521841921,9.847649834198586,0.007795937876202183,0.0031755562295728923,0.0037843552957475468,,,
0.21,1.093165144560978,-0.06943815271614255,9.804662423362512,-0.0036328797070276243,-0.0029490490157788396,-0.004883430737781544,,,
0.22,1.0517575473407201,-0.021111134854938672,9.763109685274866,-0.0040778954060377084,0.0005675692372509764,0.006190632839471906,,,
0.23,1.1198365445845893,0.13569312330036648,9.857370471663799,-0.003947690600159321,-0.011660231403656546,0.003338557311719179,,,
0.24,0.9793529452344837,-0.03076786300898427,9.806045160047008,0.00029604556791807367,0.004329901153938218,0.002785242837226723,,,
0.25,1.0120682581480656,-0.061782687641290586,9.752915852764781,-0.0014315395453666545,-0.0012689127540916026,0.010839649567899415,,,
0.26,1.0265137260736443,0.03913697555115288,9.811685220073041,-0.004924718832085123,-0.0058255838111618595,-0.001626130322678766,,,
0.27,1.1264234866217582,-0.051069333961219314,9.878574460186815,-0.003514635890435132,0.0036578650643712208,0.003924754830529316,,,
0.28,1.0121681051170954,-0.012038126306771701,9.80391061522853,0.0032303610074104028,-0.0032749174017039,-0.004128028818836241,,,
0.29,0.9561031212840191,-0.0013706041138940254,9.915604562820521,0.0017999580678671914,-0.001593191630549413,0.0034291306980127143,,,
0.3,1.0853000870853413,0.0009691250681928172,9.816103638458312,0.0065314435502994445,0.0011437821923080673,0.00967877995997996,,,
0.31,1.0291617218610953,-0.07122345158602501,9.768242040037716,0.009254639661156246,0.007618328603916486,0.0011024039335869968,,,
0.32,1.0008406339432006,0.06307221461211011,9.781297715897825,-0.0034736350947791317,0.002216633973445222,2.6974385702051816e-05,,,
0.33,1.0197439066639964,-0.01817214492622563,9.853528727439945,0.008037409306568585,-0.0005470754654912722,0.0052196939663842895,,,
0.34,0.9174913949484489,-0.012435920096505898,9.794488486485355,-0.0050940653021181405,-0.005390761834643754,0.00032938279649593976,,,
0.35000000000000003,1.0657951271178008,-0.0763196358869782,9.83818157462972,-0.0014208471666678924,-0.002638365471809804,0.007013789126523021,,,
0.36,1.0469057718501964,0.05686990537213719,9.828924716037504,-0.0024797130583535153,-0.002119294084402498,0.003212483956356108,,,
0.37,1.0288286679226855,-0.06421940361166832,9.841174489081393,0.002141141650694526,0.011587370187669602,0.01138422305640835,,,
0.38,0.977337832472059,-0.024369168077458807,9.763477899908148,-0.0019535350698174324,0.0005780250179517024,0.008029268104441168,,,
0.39,0.9835458081128196,-0.04270732200338983,9.729285548513065,0.00018667039727546166,-0.006312072059297816,-0.0006471971368303686,,,
0.4,0.9761569610916206,-0.01471312771262785,9.748763580432167,-0.006335226226954953,0.009646235560141492,-0.004437112906370155,,,
0.41000000000000003,0.965160721077268,0.08184567641606572,9.981903358462018,-0.004857833144126709,-0.002841244783940153,0.0037077777547025476,,,
0.42,1.1064348822202796,-0.05934285392141188,9.824386107702892,0.004886687880308721,0.001173830372333093,0.00011921964384950371,,,
0.43,1.013308851774198,-0.07874479041849909,9.824741312801265,-0.00033193745004477557,0.00016084944813127972,-0.0007766360940950801,,,
0.44,1.043576926127257,0.04063579089099143,9.844421466383421,0.0027587820419960173,-0.0007342232621106632,0.002000421965457071,,,
0.45,0.9839220983228576,0.0058247130836654015,9.831785670079324,0.011465841544652973,0.006866774512376213,0.003929232762782504,,,
0.46,0.9818471395152616,-0.0656205735991709,9.896207147654442,0.0023137461257356925,0.001400717016958054,-0.006722929934870963,,,
0.47000000000000003,1.066371924077909,0.01272101691071815,9.781128465779275,-0.001357624037249745,0.0003185860217825979,0.002262333991781218,,,
0.48,1.0053914407098223,-0.015174413403298044,9.824051131089654,0.001762812560512343,0.006357459864965785,-0.010833292204656488,,,
0.49,1.0081574867745158,-0.0011743789313776523,9.851449699484354,-0.0008595729066064493,-0.009783608912392914,0.003639977418570548,,,
0.5,1.1063675107082092,-0.08669307024580689,9.879841400684908,-0.0006426261156144695,-0.0013066217291442365,-0.0032644925535197456,,,
0.51,1.0032771913822063,0.05500222973494793,9.865782762099384,0.00966155802704972,0.004887059444888468,0.0041954333946478805,,,
0.52,1.1071967263083897,0.011949657936914939,9.878049408839852,-0.0004828547676735417,-0.0006672709207039759,-0.0014871191165013843,,,
0.53,1.0694791967297426,-0.06891518115574329,9.875767517120881,4.674471247420272e-05,0.004856235467336597,0.005754344943656299,,,
0.54,1.11103230788234,0.026538734556932238,9.758047987217337,0.0006652341355089957,-0.006860035962974079,-0.0005913992118313735,,,
0.55,1.095561421663836,0.0218766905448848,9.801703478571062,-0.004068586832201995,-0.000836089535618696,-0.004082800746905639,,,
0.56,0.986442986130171,0.005600473577562194,9.894415601805333,0.004043807361122199,-0.012456447542990499,0.003521833645151299,,,
0.5700000000000001,1.0236016786616289,0.010694514268634653,9.917460484082559,-0.009316191384023714,-0.003955517125955528,0.004954531613966773,,,
0.58,0.9409202800273029,0.06379745240267545,9.855067830635031,0.00523291992921702,-0.0038547183076089726,0.006068818449831053,,,
0.59,1.0734235777994519,0.001643901006858418,9.848370044634933,0.002351716196408629,-0.005316726323696909,0.0012623565987982355,,,
0.6,1.0123738733773822,0.009169693217674755,9.886641212345513,-0.004292680409892047,-0.0016250451515978882,0.009407277738294867,,,
0.61,0.9828205885593718,-0.05111250086451602,9.846765309591559,0.005221925952426601,-0.0009428697221967034,0.008644802952184946,,,
0.62,1.0628396991283264,0.03209100334450309,9.864355825066204,0.012638265501730424,-0.002025808444330221,-0.00801761146033257,,,
0.63,1.100212718075857,-0.032884971547841285,9.84204402221715,0.007547753424302635,-0.009011297705294626,-0.004258236070530697,,,
0.64,0.9399361031440573,-0.0497068145012712,9.85863183030085,0.003620939214063855,0.00038137089664276873,-0.005063829419461832,,,
0.65,0.9044948281683678,-0.007282320730480887,9.813061198318081,0.003296928858583059,0.0025097681311063505,0.0026912071602934098,,,
0.66,1.0580066542687927,0.0014605687057534216,9.863153235280071,-0.002523366314349412,-0.0018980570691572926,0.0029838804832847863,,,
0.67,1.0610264237708709,-0.029687058611228605,9.862708362786604,-0.00032919395957689513,-0.0015877108366406517,0.006147595210120365,,,
0.68,0.9203469814472922,-0.07482361640373805,9.762540730127858,-0.010668080599241524,-0.004391322200775883,0.005747169498638702,,,
0.6900000000000001,1.0057557966808712,-0.00011049590290739333,9.891110874835539,0.007638430661338458,-0.0013456896736306978,0.008767929447846986,,,
0.7000000000000001,1.0246063329217054,-0.05186991119137311,9.806929982390063,-0.0064026825628250815,-0.005440669268668262,0.00020991655962785414,,,
0.71,1.06017925096893,0.0760384915582992,9.767540924231147,0.002964137341299595,-0.006202719695787672,0.00437348544231601,,,
0.72,1.0134456674656136,-0.10154529129237652,9.883064849578423,-0.002025003564043655,-0.003669501191867773,-0.003348762056448449,,,
0.73,0.9872858361656223,0.011394522034745861,9.827187782953178,0.002643310011412405,0.0008096092696442184,0.008603308277640834,,,
0.74,1.002860692456781,-0.08384289084228659,9.890011120828598,-0.0006574408604862734,0.004572962222886885,0.003916885565912352,,,
0.75,1.0134431234898327,0.007438794702314755,9.934200628006314,0.011384902645268764,-0.0006530943243361065,0.0028009529665853766,,,
0.76,1.0738120078733193,-0.05228305163836736,9.853303518630911,0.000870685760230718,0.0005695410572877681,-0.002166844029747029,,,
0.77,0.9405216253345515,-0.11364917179956459,9.780780794350518,-0.0012933764246966651,-0.002465957933243809,0.011686155812147585,,,
0.78,1.0752996684953648,-0.05810455581708137,9.854035422622546,-0.0010353911817516256,-0.0024218191902004756,0.0029266282470769103,,,
0.79,1.0509585558487697,-0.026962924194200766,9.889842576636717,-0.00470969113071202,-0.0009683046881886578,0.014988368632979162,,,
0.8,1.0311539871312638,0.061660725330308634,9.84122600890866,0.0039038854766489835,-0.0012839159719634577,0.0011479620941789778,,,
0.81,0.981025880163729,0.011515067947877664,9.79407314054071,0.004327926181567146,0.00442643502222955,0.0038326570361861497,,,
0.8200000000000001,1.0056875633222153,0.012698278965434804,9.821216347222679,0.005677735627325747,-0.01015703042107562,0.0003219631594067688,,,
0.8300000000000001,0.9204594002438001,-0.08475304151136025,9.904843111490694,0.00547592490985843,-0.004597401166423952,-0.005512517280204485,,,
0.84,0.8717735581079175,-0.03717477539663173,9.957670750612369,0.003174421357318237,-0.0037978614302474475,0.004325401047501532,,,
0.85,0.9419520823502778,-0.024866168134881773,9.841623873650786,0.0005694967408947575,0.0029540306084504028,0.003723226131180262,,,
0.86,1.0534163009053998,-0.044418614111537975,9.881540770420527,0.009144684738119958,-0.005850747598257064,-0.0024384782785727985,,,
0.87,1.0867892168160116,-0.019567199334753017,9.906841069603326,-0.0012126785594609195,0.0062752278813535565,0.002657429084027261,,,
0.88,1.0329114411661349,0.06823590108349523,9.81856147612779,-0.003705610479624792,-0.0032428210401417717,0.004261669753215694,,,
0.89,0.9417120463909743,0.02187354513255607,9.809711434119112,0.0067390633036678175,-0.01297130152450236,-0.0019328288755208435,,,
0.9,0.9356765924382949,-0.05131147331819763,9.849033295055445,0.00010386687275122555,-0.0022668878447400747,0.001204075643099696,,,
0.91,1.0301694120309972,-0.06042680209715539,9.871992482044952,0.0043133298519274195,0.0009251896882805049,0.004782667213756316,,,
0.92,1.034820900040433,0.09175366513655338,9.832295291447373,-0.0005354160916728838,-0.00476763790178689,-0.003161313352889184,,,
0.93,0.9577764106199462,-0.054439865661545926,9.833115980917395,0.0026714756424885723,-0.000744289707239191,-0.0018276763871485648,,,
0.9400000000000001,1.0650092282009982,0.026970633615047375,9.828667584628898,-0.0022645807233235603,0.0017421396041489975,0.0029398679374305226,,,
0.9500000000000001,0.9475936370292476,-0.013399012799220246,9.849751790603717,-0.0034984739324387688,-5.078303581278502e-05,-0.005274112426288946,,,
0.96,1.0868093050006085,0.05239749925297159,9.824024133284851,0.002817271689195366,-0.013049609828999376,-0.0037817383013266648,,,
0.97,1.0053110539923935,-0.06360665107134296,9.872369824131532,0.01098648265373997,-0.00688307359714651,-0.0021873170204259633,,,
0.98,1.0317724184154966,0.07055580742498105,9.775531284373004,0.00224518061153471,0.008106494254065545,-0.006258795740896337,,,
0.99,0.9559465396577084,-0.031180330323041912,9.810620579357229,0.005063006438768223,0.0002082985991041903,-0.006874810298210642,,,
1.0,1.0457705201450405,-0.03887694436778253,9.900372360847062,-0.0021379376821845982,-0.004183076415511178,0.004705658054022658,,,
1.01,1.058146324116847,0.01240496819681018,9.752370134130759,0.0036901721996412556,-0.006171540258371995,0.0031763805579413176,,,
1.02,0.948813278230047,0.012316107377153185,9.79632005478463,-0.005413173251302608,0.0025691006824119975,0.0032082226083837567,,,
1.03,0.9893011599303552,0.06255894245105321,9.814617378921511,0.0011605383698546734,0.0003445672383930046,-0.0010983296706430679,,,
1.04,1.0435568146699965,-0.03667261735823622,9.816068083889189,0.007813213199016705,-0.006202930262562165,-0.010063901654647451,,,
1.05,1.1005468497505948,0.11746639763035015,9.816386536727531,-0.008684190203100926,-0.002552419880979719,0.0005688852507966539,,,
1.06,1.010503807948887,-0.06566940209609241,9.865628057123823,0.003622536876430431,-0.008472028099096533,0.005495983658474439,,,
1.07,1.1226342490972945,-0.0014019833781470075,9.819783741896574,0.0002899839279623934,0.0020762838348428064,-0.006653358027536091,,,
1.08,1.0282195351488652,-0.029523197473140507,9.929041250647801,0.00012913633097521064,0.007339438055597599,-0.0035187034889100363,,,
1.09,1.0493629583401396,0.005970013189561441,9.79319763760676,0.0018869805731847023,0.005062594184158002,0.0003810414785669965,,,
1.1,0.9354018675415119,-0.010878141323872296,9.791528845260373,-0.0007117046933194119,-0.001407938848425605,-0.006528261080077586,,,
1.11,0.9392170830339661,0.014103341776276266,9.810514065191514,-0.011823721709102834,0.0029242201830406754,0.0033618487763711993,,,
1.12,0.9843062587981758,-0.07584151055291208,9.878440394815716,0.002746753112802148,0.010913011413420368,0.0041009429936246875,,,
1.1300000000000001,1.0393851570631008,-0.018346396505428256,9.877488793360039,0.004125426006240768,0.005258625042825975,-0.0006066145931864237,,,
1.1400000000000001,0.9982296263528019,-0.03395515854559901,9.876190086058948,0.00849187220148366,-0.0032942024657465034,-0.00012386863896545613,,,
1.1500000000000001,1.03570386119349,-0.022288075000645072,9.884252682656994,-0.010258886453095233,-0.005133525234584473,-0.0019120816698072291,,,
1.16,0.9039821993806928,-0.05818192221844021,9.790892194207702,-5.523272594151578e-06,0.004564829458301318,0.0007746967440464881,,,
1.17,0.9684593139864424,-0.01284772706067645,9.889108681072067,-0.0038797940805745243,-0.005552874419607243,0.004792744796371117,,,
1.18,1.00892319421346,0.022374234535473714,9.835967660410233,0.004508318240447835,-0.006175390570203204,0.001939576746058663,,,
1.19,1.0094654992818421,-0.07079454620520653,9.758476102606565,0.00442874517637331,-0.0027547619110898907,-0.0031114014082366474,,,
1.2,1.0151910531538335,0.046400942867465135,9.722613107731403,-0.006483193449516632,-0.005614432209476338,0.009305894333601645,,,
1.21,1.0341293491459649,0.028365862023061343,9.779641954043687,-0.004597679376352631,0.0012390685836135523,0.002291371654677233,,,
1.22,1.0474369409432063,-0.01938354954642261,9.85055718632273,0.0017905954245255459,0.002888836945424627,0.006035041409722353,,,
1.23,0.9390064002804115,-0.12236342776704277,9.886737269882573,0.006938625466309683,-0.0061031150975666875,-0.0072991770327281436,,,
1.24,1.0249517410503601,0.03654191131752647,9.926529726121714,0.0035814878605072552,-0.0028585834829284746,-0.0024656531079243135,,,
1.25,1.0205725645835328,-0.02496323519426282,9.785896604713558,0.011243778254316435,0.007925842010360656,0.0076802434177771425,,,
1.26,0.9739574801095436,0.03275096621486394,9.868631320474893,0.0032127281210202648,0.005248326335218886,0.005176855714306388,,,
1.27,1.0570007118152167,0.021845314168610505,9.853689570400103,-0.007918055648570916,-0.0005818946129472139,-0.0007809597942456262,,,
1.28,0.9560079521179989,0.07409083096504121,9.923099767044285,0.00779610300147806,0.00027606708427937304,0.008753125604763285,,,
1.29,1.0206026590300914,0.00013986384488897004,9.781976431476899,0.0029849565224942002,-0.0006980703578779145,-0.004513260584172322,,,
1.3,1.01744014440917,-0.013986478192840424,9.92652805833223,0.0054710666425670474,-0.0009427728045426699,0.003243936549005415,,,
1.31,1.0222106189052098,-0.02014569923977739,9.782528640130584,0.00024474061196535374,-0.004730491283262567,-0.004251577694615732,,,
1.32,1.0455610907273767,0.00956323299666175,9.747314624431596,0.0003865768125243639,0.003978506929499618,0.007296118694481604,,,
1.33,1.0712918421442619,-0.008054339654927009,9.79439773360154,-0.004418494136790303,0.0007230245237517874,0.0038964001718258152,,,
1.34,1.0843665555802533,0.04499898251710418,9.83003856717344,-0.005221029394304347,-0.002595532985054489,0.0030861559740526234,,,
1.35,1.0098958377305298,-0.0388947054038828,9.849294240748494,-0.0015197887070530522,-0.00414033041862687,0.003557264171517198,,,
1.36,0.9999003709935398,0.0022052194489176075,9.850310201142605,-0.0046971450054578735,-0.003406205619327061,0.009188884699582312,,,
1.37,0.9618960243632857,-0.11583272244852655,9.743557742337874,0.001145549732883346,-0.0008454136098365054,0.0014119457228743953,,,
1.3800000000000001,1.080709491446425,-0.1436417216551469,9.85644669372154,0.008807191009017867,-0.00663890382445857,0.00010096744105052443,,,
1.3900000000000001,0.9823554041385689,-0.05471730230387644,9.820336899748847,0.008137426418422524,0.008186933377437602,0.0003203038747992613,,,
1.4000000000000001,1.1152530107032235,-0.008221176150768757,9.924334551335052,0.0005335067517325412,-0.00034471086976927854,0.003827372363214173,,,
1.41,1.1789426839683768,0.03256427874223945,9.801286773502426,0.0058449893513792895,-0.0028091626854217077,-0.0004487509145060459,,,
1.42,1.0654300679946056,-0.00844572061144236,9.850578795725589,0.0010699261093264623,0.0006829156330271735,0.004124829487180746,,,
1.43,0.9231516533647293,0.023328633430476677,9.787549029008483,-0.006211495677797056,-0.0012920562192934122,0.0024199050165722713,,,
1.44,0.9853246917713859,0.03155159288339872,9.769541241681454,-0.0010347187438627947,-0.0039243706746650035,0.0017670636483033031,,,
1.45,1.033943214232362,-0.06039464748117724,9.87286413387281,0.0013150118416734987,-0.010459731266559552,-0.007792957201985156,,,
1.46,1.0193840353535344,-0.021048365889317706,9.831478994321268,0.0008600877173489101,0.00012779919755090364,0.0067382480492414985,,,
1.47,0.9644447549541221,-0.06859857964503974,9.781983807105629,0.0024445833358435346,0.0052247368932322276,-0.0001566971911975525,,,
1.48,0.8949150077920173,-0.09519964313051878,9.794998163860198,-0.0017886444374760739,-0.003041943136273632,0.0021929056149045854,,,
1.49,1.0044126834588776,0.04246698052717036,9.802849134715931,-0.0033115897973777153,0.001394377692602308,-0.0056782103496305966,,,
1.5,1.0394845852660002,-0.004872340813686657,9.82927787550409,0.00894138053574631,-0.0041110372264735896,0.012301490852620393,,,
1.51,1.008728427538595,-0.0738508222485114,9.84014597904974,-0.004381226001593841,-0.004758779239067501,0.003985166500077455,,,
1.52,1.0477791044325062,-0.04110838501271291,9.88602025725232,0.006787538790105669,0.0061815087828164545,0.004647067035628611,,,
1.53,1.0881714356042849,-0.10403992139870288,9.820754672568576,-0.003335026281617131,-0.0004038706943630396,-0.0008572460959836866,,,
1.54,1.0116921079025134,0.08410874401020248,9.82816401017898,0.0030689615859510696,-0.002161346649621176,0.0023785664397841686,,,
1.55,1.0203008340218036,0.012416203298657976,9.894915376777357,0.009236969988016649,0.0005481004095458342,0.004947734430178011,,,
1.56,0.9624567745407216,-0.014393837120781029,9.883664473244178,0.0053298431920857665,5.804866397525108e-05,0.006431969797839762,,,
1.57,1.0445383354496909,0.05001531291296608,9.851117957847855,-0.0007784915778551733,0.0006792062846651182,-0.01265297187926388,,,
1.58,1.0391442868192524,-0.1924206412607392,9.750476829629728,0.003258843004704921,0.0013876466863339764,-0.0038121439006996525,,,
1.59,0.9843948979060531,0.0585270494307066,9.812448493421366,0.012214601562014926,-0.0010095992658817308,0.004040180884406334,,,
1.6,1.1008437199249304,-0.0034486441903290223,9.786532800965459,0.00045136274152854947,-0.0011780536809504547,-0.004823708261007827,,,
1.61,1.0072083964329588,-0.04710960469987184,9.882867887859371,0.0011730593709262781,-0.0024139787457378506,0.0014690903468871186,,,
1.62,1.0311561009203083,0.02084070998448899,9.78666438856653,-0.00420793816310636,0.0045233960770126504,-6.168436102365303e-05,,,
1.6300000000000001,0.9491578953701563,0.012190635469155232,9.859818490301633,-0.006653576286283532,0.0001474085773180314,0.005677915462141869,,,
1.6400000000000001,1.038719322585313,0.021599074188069764,9.76643654509546,0.0026552007749809778,-0.002513098797352233,-0.00041395079362322416,,,
1.6500000000000001,1.0635277804709864,0.0639637255337115,9.926368502730016,0.007574039357529525,-0.0015486709081509184,0.0037636008151317154,,,
1.6600000000000001,1.0583411435892123,-0.003941102535026901,9.843188209395576,0.00511876565938091,-0.0012964132301296612,-0.0016464346818683075,,,
1.67,0.9992763467082071,0.021695518886687117,9.836799664559997,0.0027010498843416894,0.0023503962110109494,0.0001257926855119519,,,
1.68,1.0578124081814904,0.008942130172919721,9.774909345654425,0.008211523955931221,-0.0035037237187845807,-0.0062754767159259196,,,
1.69,0.9677478145206849,-0.061052258033916104,9.839258665932876,-0.00036925252773118604,-0.0026841598382029647,0.005098509827412395,,,
1.7,1.0369937680596353,0.005802393532214312,9.857141422866434,0.004080673340011191,-0.011539766708887216,0.0001778087386776941,,,
1.71,0.9109894967755263,-0.00819700366011023,9.836418351388781,0.0062276613739484015,0.004938171963605604,0.003013875241261837,,,
1.72,0.994981946130155,0.014258055627286893,9.810254118133782,0.0009930367427832556,0.003930681584803839,-0.000788856729947118,,,
1.73,1.0602839319621251,0.023870068434615116,9.788910409143458,0.0058694706410870046,0.0024928317268575256,0.002509629436863287,,,
1.74,0.9818838270986174,-0.05296030092877851,9.809766871154848,0.0037129723164598004,-0.00577812583700699,0.00418756124309935,,,
1.75,0.9579122235560804,-0.02020342922194245,9.842132387728698,0.013225650725294583,-0.007886578277601837,0.009360072832450668,,,
1.76,1.027492120699364,0.010558595900798157,9.842567395669409,0.0032236340909761654,-0.0017684255218100887,0.009270250907287291,,,
1.77,0.9971764427887639,0.046611728608962386,9.804431643989348,0.0006987407679935652,-0.006359812761451096,0.0042751186017376,,,
1.78,1.0922562978463266,-0.013867808991042705,9.826805715064804,-0.004573084815339634,-0.0021464632677615407,-0.005963971298607639,,,
1.79,0.9743561006640586,0.0013393023054567715,9.902600659887069,0.015046054306147517,-0.003932925425354504,0.009176500783227199,,,
1.8,1.0321876240200825,-0.017562382337318792,9.858279722586307,0.0013095824183997958,-0.00044802137193890735,-4.1665814133346e-05,,,
1.81,0.9500945170100574,-0.08718126012610408,9.86931224416406,-0.000383500450428567,-0.003980444498280833,0.002042528133615768,,,
1.82,1.0597466126457813,-0.0009818028486800901,9.80384725316795,0.007131464778244749,0.00689592751490816,0.004472783276614267,,,
1.83,1.0686831755672046,0.05209799984069056,9.893154965820225,0.004070495885563118,0.001991735235374414,0.004598302866732513,,,
1.84,0.9651331162726479,0.025036157842979287,9.76885930144367,-0.002972997275625275,0.005517825339040438,0.006201100813470988,,,
1.85,1.094369914484293,-0.023583719184364613,9.77903755793616,-0.0002021859853517142,-0.000489843513797129,0.0023949435817000484,,,
1.86,1.076684023937835,-0.02806352125017228,9.854251723590146,-0.0039431357471730304,0.0012515863902190648,0.0020155427509281837,,,
1.87,0.9825093330857742,-0.02179146810874264,9.827441212674238,-0.000350775646685481,0.007856706211338417,0.001507769988460602,,,
1.8800000000000001,1.007805194491133,-0.11487254788050709,9.791939632401025,-0.00031536712228176413,-0.004429263380883214,0.008908537966888985,,,
1.8900000000000001,1.0117531112301892,0.05442221246591262,9.839735231702518,0.0011861391821078831,-0.0014439822385625047,0.0020189812581072955,,,
1.9000000000000001,1.105939750152493,-0.12598053633756093,9.736572712778065,-0.0017158541552805694,-0.0009273605903121556,0.005450522123820062,,,
1.9100000000000001,1.0436543599013737,-0.02921229564402851,9.887602184662088,0.0061509770157636545,-7.971084364217238e-05,0.006813287862434206,,,
1.92,1.0336322631716064,-0.038074151339144185,9.871540841949999,0.0015530656128933886,-0.0009933007662275655,0.009364767860947872,,,
1.93,0.8974563935729957,-0.08088420850797848,9.777296478681281,-0.0008163032378440281,-0.0022730408488301507,-0.0055366282388652375,,,
1.94,0.9707420983844587,-0.05304208392617851,9.959521204603794,0.010008709738735733,-0.0030587470884232467,0.00018208354846600545,,,
1.95,0.9625398001405853,-0.10540652066126334,9.830805990679572,-0.003989259916220129,-0.0014242526583100488,-0.006001029245217388,,,
1.96,0.9819012770844872,-0.002568645234858457,9.854960479889195,0.003087359793710073,-0.007602444920785187,0.006273428650677809,,,
1.97,0.9799894151699075,0.02164289573036532,9.836118066169089,-0.00588193749538974,-0.00258098852290594,0.003826818710318838,,,
1.98,1.05064826902373,-0.01704939487222093,9.913238944530052,0.006037553854932795,-0.0022832705819987643,0.005750609060684723,,,
1.99,1.1166896742594095,0.08802423003915136,9.775250005958874,-0.0036326655557857536,0.006424593933669255,-0.003291405254188186,,,
2.0,0.9538729433354161,-0.03430970653495235,9.857661335473727,0.0004880164669445182,-0.004252818102027961,-0.0013710623086225452,,,
2.0100000000000002,0.9843831467793646,-0.053975481432947135,9.950731643863802,0.002487555355927775,0.0034337952720236925,-0.0004453873405946187,,,
2.02,1.0107021661406976,-0.04567769906851775,9.70406458325404,-0.005890046384239332,-0.010053093399901975,-0.009248918889758038,,,
2.0300000000000002,0.9602320512850949,0.05624778396908154,9.834428191614782,0.007452818811605871,0.0010549128845043767,0.005912794128575797,,,
2.04,0.9749551502347713,0.01619754770963354,9.873085711703716,-0.001883236461168465,0.0017977018530808317,0.004830938792874165,,,
2.05,0.9925223689434959,-0.06613842161354976,9.777443583405086,0.001432527709607309,0.0006350493439465741,-0.001962629152289572,,,
2.06,1.021329267066305,0.018526851806924267,9.867559535733264,0.008759400600612442,0.005384904160990217,-0.0030064571637827206,,,
2.07,1.104179310476901,-0.03654882522778574,9.88889364062272,0.0013399331302554442,-0.003060746892284838,-0.007038484298874664,,,
2.08,1.0114217744891827,-0.08796916176528045,9.885014961792137,0.008583963285696241,-0.004984554946483451,0.0035098537125963555,,,
2.09,0.9837304238996012,-0.04142423650683948,9.875374735193267,0.0008073086907829374,0.007698240209655058,-0.0004111623935146051,,,
2.1,1.0699668166237244,-0.0051293293521109005,9.87643890048721,-0.0012357882866497337,-0.0012477941877579136,0.0014225056035053261,,,
2.11,0.9781971442577106,0.02310407672908763,9.869162450278917,0.003967773474527834,0.006684828269588224,0.009246724006181518,,,
2.12,1.0012527655075432,0.008652615921708911,9.805469965537089,0.0011167765805727772,-0.003998747245594324,0.010100351545680255,,,
2.13,1.038184907517148,-0.020901456405221105,9.896330928592818,-0.009853077048977057,-0.01107051297432645,0.00597919327609887,,,
2.14,1.0230234224058685,0.002522315013038033,9.770330194834072,0.000883831445748169,0.009017547052006709,0.006120998098979314,,,
2.15,1.0284853272571406,-0.03195269550524688,9.81692135740653,-0.009645989446000088,0.00028820210460580296,0.0062274155424092694,,,
2.16,0.9412190336414692,-0.0430708446153408,9.778776768388328,-0.003826755974043818,-0.0007325918658904989,-0.008422010774942371,,,
2.17,1.0507135219178532,0.02769275349668411,9.824094870598152,-0.011403542549922707,-0.005982093130011948,0.008164509670513482,,,
2.18,0.8811002859635714,-0.02737617060967596,9.777649961076635,0.005022851507924183,-0.004375569760717307,0.004019770103678058,,,
2.19,1.0482730209584548,0.08181129198650101,9.82650290281623,0.002880221848113057,-0.008425277395637181,0.00795206781646872,,,
2.2,0.9819745575964318,-0.03803770820438728,9.835537610257537,-0.006814421726699248,0.00014385014464468994,0.0068373313646250536,,,
2.21,1.0346466911748646,-0.08944487820893625,9.830459535283516,0.004710144514897453,-0.01038994382982954,-0.0033738300690885703,,,
2.22,1.063827180204076,0.0035047717098643273,9.857248579106336,0.01029747403811656,0.001342763892531013,0.005289440052165897,,,
2.23,1.1555372763609164,-0.020690227904524537,9.796755861819074,0.0031389819912356638,0.0011949551469444745,-0.000633576959731041,,,
2.24,0.9683801490222577,0.10549222110450392,9.8529921735194,-0.0026614269070103784,0.003579651511397993,0.0014542742421933277,,,
2.25,1.0073559276841084,0.018113643595724663,9.772055886588415,0.002763136019585862,0.008564774038658761,0.004330888310986554,,,
2.2600000000000002,1.0011893948108268,-0.0353552640214121,9.816133001332743,-0.00026981339023890525,-0.00288903266379136,0.006581557205372834,,,
2.27,0.9333395448395508,0.0331000025206067,9.817665673742871,0.0028847389284768613,-0.006634939551004319,0.008643155334247182,,,
2.2800000000000002,1.0822817480085938,0.03797952628750368,9.760912261210322,0.0051456053553302645,0.0010242754381785445,-0.006026356235662838,,,
2.29,1.0187851308114593,0.008226724451663127,9.864453763691156,0.0018863068347442786,0.0004561570842368985,0.009368056961265478,,,
2.3000000000000003,1.081301695495534,-0.15335274768913718,9.820778072258115,0.00017674486228024357,-0.009760492863634857,0.0024709152911615608,,,
2.31,1.0824378886205253,-0.06432839297952951,9.853470046934492,-0.003579117386482189,-0.004359560118398384,0.009386968170850177,,,
2.32,0.9928721089944088,0.013110624450531233,9.74308909419695,0.010311587806974401,0.0020132622315324946,0.0010875007867486917,,,
2.33,1.0487773254999948,-0.08049097144739051,9.895776537087631,-0.0006199238774821508,-0.002020347575242174,-0.00045827807482742237,,,
2.34,0.9909674298627208,0.02473353058142043,9.84944534250521,0.0042587407070152,-0.0010439734474278573,0.004565999055385905,,,
2.35,0.9990575628037481,0.10148659207047743,9.758253479178475,0.007304686617814922,0.005839537253604854,-0.002260794029827969,,,
2.36,1.1314636805277987,0.03977451414726591,9.885206950341145,0.0011401109351293834,-0.002086130791093382,0.0009529558648019595,,,
2.37,1.039526529815976,0.060059313751694814,9.845715710893069,-0.0035572181156864517,0.003122135311924899,0.006605753731973961,,,
2.38,1.0527329764223894,0.027274945326249134,9.823103593492108,-0.0036449458356528977,-0.0053409671532038995,-0.00617731624228929,,,
2.39,1.0318474305772976,-0.01417243916132968,9.814650614773514,-0.01377809412172535,-0.007236587348470844,0.007604203257015834,,,
2.4,0.9867686999968435,0.008029583882842072,9.767115728501237,0.008193527411796155,-0.001720138300273382,0.003450201982417676,,,
2.41,1.1362889895940842,0.06582200502947019,9.821321718935646,-0.001966100924351796,-0.0026277250575976593,0.004549491242382678,,,
2.42,1.0147387932874565,-0.029762207250173582,9.910009062535451,0.00042895054111081554,0.010497945465186596,0.002453712818760865,,,
2.43,1.1092659197112364,0.00786597113553134,9.884798028662471,-0.0026230552575886223,-0.005268796112937059,0.004298529775074937,,,
2.44,1.0694276621232657,-0.007987174899976857,9.772330333245813,-0.005801291831446636,-0.008135682010931206,-0.006838110564696905,,,
2.45,1.0254742679723543,0.046252196085401265,9.835979210653758,-0.01030207378668926,-0.0019538023016727434,0.0011860050168369645,,,
2.46,1.124799937511272,-0.08285689564597781,9.81711611987004,0.00952926340272282,0.0012498917067327404,0.004816565367582124,,,
2.47,1.025729221851194,0.00649717693286323,9.875530476513926,-0.003047431594463832,0.003390292894540999,-0.004865015084427696,,,
2.48,1.036418398641577,-0.0010629518356836416,9.805835345590394,0.0008865736233717663,-0.004112700763327766,-0.0033585066343087217,,,
2.49,1.0023192629193178,-0.06519943176858307,9.852789873204662,-0.004750427470761817,0.0025598851149552567,-0.0039073953396441,,,
2.5,0.9916852542209497,-0.04123017041075895,9.902907336443741,0.0026514497280829595,-0.002058669012721971,0.004493597205348617,,,
2.5100000000000002,0.9146403826335157,-0.012156679482045372,9.936525708890237,0.001661732532013363,-0.0006604341541533226,0.00474064189821098,,,
2.52,1.0647802621657172,-0.10987333464449299,9.752533675910447,0.0020514564554307327,-0.004574382809487548,0.008560126311099571,,,
2.5300000000000002,1.0042412805057388,-0.1067265367856559,9.7732493041578,-0.012748380098152878,-0.002170627686414563,0.0010580793636780833,,,
2.54,0.9987768645109051,0.04394395195148693,9.896575991825834,0.00014805788321944392,-0.01167346833738428,0.005086407902461293,,,
2.5500000000000003,1.0477680114254289,0.005469578507847251,9.885723987465404,-0.0048241404823052,0.009043776930925694,-0.00279713876570934,,,
2.56,1.0574611463600427,-0.09436738472066758,9.790136765636497,0.008581843233626681,-0.00230449911500425,0.00619961302566399,,,
2.57,1.0318477694359622,-0.015247907800008634,9.904842516246633,-0.00018329412325950164,-0.009903690537817353,-0.0020162004597585256,,,
2.58,1.0475595864350846,0.009775455318125409,9.758297087488227,-0.002621712597041005,-0.003908606746011233,0.00017265202942887484,,,
2.59,0.9512043205699224,-0.04141855540597393,9.800219475737022,0.004857666298809597,0.003045606554951219,0.0012709477095559202,,,
2.6,1.0003980102064634,-0.00300378439804433,9.79582124462722,-0.004734160410837205,-0.005701106044628585,-0.0011740658198572834,,,
2.61,0.9618263100103864,-0.0018970220468562619,9.873135783689184,-0.006935491503991209,-0.0008743564439198333,0.000900321023668322,,,
2.62,1.0370754342768402,-0.010646938405179404,9.763970036003418,-0.005311946494285827,-0.0008528821220751364,0.007143904598727547,,,
2.63,0.9092906314478498,0.007286328990078998,9.89613110026438,0.00023487061896893446,0.001751012480132204,-0.0015153454044890108,,,
2.64,1.0140316900361561,-0.09104567591540758,9.719432834579056,0.0057138290061263764,-0.005924974638622209,-0.0002776392250171526,,,
2.65,0.9506778873364904,-0.08049848515419379,9.827958114995267,-0.0026478859706782322,0.0008898549899734923,0.0042626920948979595,,,
2.66,1.0360424823162304,0.001930039546422185,9.915538410246594,-0.00433796884522443,-0.0012746743310145887,0.007663449102597944,,,
2.67,1.0832269904669019,-0.08108818246722864,9.821032227917206,0.007790605479336302,0.0015403955259953267,0.0029763151573988637,,,
2.68,1.0091157653282672,-0.029190046285387274,9.851060953154516,-0.00026187062492241675,-0.001212893105222221,0.002392993530575187,,,
2.69,0.986096423575325,0.016606468694071917,9.982362232420769,-0.007884933196630375,0.0006200626209498994,-0.001800950443094528,,,
2.7,1.0488701288759625,-0.007672126333606954,9.874742738702121,0.006877532882543898,-3.789441115909333e-05,0.007660261442070891,,,
2.71,0.9027851053105661,0.06952261489580117,9.855403107594615,0.00638921677872591,-0.007099378724207608,-0.0021538494080266786,,,
2.72,1.0272969147072388,-0.01085189446687315,9.850803429400498,0.006422575804649831,-0.009826101576514246,0.006869095358586545,,,
2.73,1.0204140954978964,-0.02018909305622739,9.763094238280754,0.003515243341884325,-0.013070539255155188,0.005241970056193564,,,
2.74,0.9453947082263504,-0.007327104369126298,9.830691558133603,0.0068476907364694185,-0.0018932758450694509,-0.0014706928057283282,,,
2.75,0.9946698652014399,0.053644138437733184,9.863464848459044,-0.0009281499076158066,-0.002182232099822567,-0.005835885452927235,,,
2.7600000000000002,1.0394237100425772,-0.09799078538477328,9.874239823291772,0.0016431079624563292,0.010934758997869613,-0.003500677768621529,,,
2.77,1.0148668954479683,0.07991438504615314,9.896219482014569,-0.002481060257899499,0.00011983714186723868,0.002009996782075436,,,
2.7800000000000002,1.034097793369708,-0.04493402179924149,9.832183979864961,-0.006990261876383568,-0.00032438274065958977,0.004250103367109161,,,
2.79,1.0086290293678057,-0.09075254452923939,9.886076593142572,0.002822625189964011,-0.004630075488504884,0.0005969977658096801,,,
2.8000000000000003,0.944966529860908,-0.061270506388895224,9.809759432682142,0.007142104061400756,-0.004197516954437378,0.005201068296643794,,,
2.81,0.993084189856921,0.002397378042593743,9.829580224892808,0.005365283000463717,-0.0036740566910927895,-0.005862641250012205,,,
2.82,0.9509025484318184,-0.036593874697137874,9.774197001466096,0.0030510600783977566,-0.003328840824290389,0.013873032750132158,,,
2.83,0.9331142702431434,0.00018165893549006162,9.780252348824716,-0.0014670067019133927,-0.00029290263329727914,-0.009626856874371434,,,
2.84,1.0318413058394014,0.0851453731137084,9.813978085081569,0.0022990392840275473,0.004124608465626996,0.0011802324998650172,,,
2.85,0.9909519905734259,-0.12378682018608761,9.868699535969748,0.0004341579513555138,-0.0060634192569408085,0.002632983551388468,,,
2.86,0.9908159821596909,-0.03642130655577628,9.866964557805435,-0.005691912056619223,0.004236576430368792,-0.004988430815592019,,,
2.87,0.9868649295822368,0.08614730970332887,9.89301773808212,0.001488019962477201,-0.005702651077506083,-0.0006463615334994662,,,
2.88,1.0236637657292849,-0.008123838383020079,9.832106453518701,0.0008458374295790784,-0.0020718755485255704,-0.005209893678200065,,,
2.89,0.9941744628919584,0.03573120269934233,9.768233285122443,5.222244230360736e-05,-0.00509876964385422,0.0025567521469905567,,,
2.9,1.000568340946659,0.06386968324873346,9.861979157709511,-0.005559015828886057,0.002356140058068493,-0.0018732592813103153,,,
2.91,0.9911501814311233,0.005690951005356092,9.812062629013493,0.005464279081614776,-0.004872550307566977,-0.001094732762956816,,,
2.92,0.9871814553225946,-0.038281937417751946,9.89160957777739,0.004143981468051516,0.0075497197700603565,0.013338221019496273,,,
2.93,0.968464148403383,-0.006479043633635556,9.777839984167827,-0.0028880296387413357,-0.004150412551278347,-0.0032857743706913717,,,
2.94,0.9674056363550794,-0.017214218926012742,9.775814079080678,0.005210634795688164,-0.005588767687087571,0.01604784485048196,,,
2.95,0.9974307774517802,-0.006399117904147389,9.771882940776697,0.009530458790638196,0.0045975034040145815,0.003484579353680563,,,
2.96,0.9526598725610217,0.0005333438862310143,9.780578447699137,0.008311776317366803,0.0030459736592658637,0.0024771951924386806,,,
2.97,0.8981812168376339,-0.05917079893295154,9.871038056579993,0.007064418458615779,0.004545849057460658,-0.005960065011207277,,,
2.98,1.0350776153406451,0.040775760824146474,9.753733221720886,0.0009604774231338183,0.00036921199154228116,0.0004961770757663255,,,
2.99,0.9273919072299399,-0.026284905503686437,9.820284728487248,0.00025963797726122903,-0.003817357127125348,-0.00021506076620733672,,,
3.0,1.018014685882651,0.012122730248485558,9.821428661857166,-0.0010482446418400094,-0.0005382298087277097,-0.007604579629475907,,,
3.0100000000000002,1.043851756361323,-0.01002815485614794,9.838634676329876,0.00580367153797232,-0.01076407765024124,-0.00786916934929482,,,
3.02,1.033690192266176,-0.010355842756425789,9.845158847159595,-0.0013106353758622277,0.002321768371199656,0.0066631942149556,,,
3.0300000000000002,1.0441991146975764,-0.023041422920229156,9.731265530619279,0.004846181040185641,0.005108643331087964,0.0052227920599199,,,
3.04,0.9760178786316247,0.023689719683387893,9.879676485398072,0.00879408123899543,-0.005380549621139788,0.0008677270772793077,,,
3.0500000000000003,1.0573636025571729,-0.007129496428092111,9.780783619897434,0.0030730814251335153,0.0018933081690758334,0.00243981448165501,,,
3.06,1.0309792463589973,-0.02293529508428651,9.910563946785802,-0.0035034609185633833,-0.0039366038138188945,0.002054927567637628,,,
3.0700000000000003,1.0639477013850447,-0.08486865850472683,9.771135162511726,-0.009188642538673589,-0.000836523873733646,-0.0035915290860327196,,,
3.08,1.000772494499104,0.0230689094945854,9.804572863960857,0.002156410113716823,-0.0024966895387586105,0.005360571575482184,,,
3.09,1.0437564033674005,-0.044596684808730504,9.828217412329977,0.0062187169886024725,0.0009668843512704852,-0.0049848102887556575,,,
3.1,1.052780903058569,-0.06423053112181192,9.907275653498049,0.006120494199205124,0.00044942737959200395,0.002786164217180967,,,
3.11,1.009548387198629,0.023926197570001403,9.818111091526896,0.0021778493531994696,0.0033596718325972557,-0.0008090327176279483,,,
3.12,0.9891903630004653,-0.06971827403622295,9.78342636269369,-0.008141976557207511,0.002649143945077648,0.011044572710413854,,,
3.13,1.0912664471735154,-0.09130422443132583,9.872892733577808,0.008110531749617782,-0.00328404990369332,0.0025072371532502474,,,
3.14,0.9196053474597665,0.003336808398832077,9.783472013528263,0.0019981750895575728,-0.008806014610944402,0.00471429112238798,,,
3.15,1.0712256337713346,-0.049158993085758385,9.779803870929477,-0.009780115212749907,-0.002332067670375885,-0.0009079696714080258,,,
3.16,0.9424490293825973,0.012650937815608583,9.814151480906766,-0.004378679793226162,-0.0037728620282022353,0.0073565226946480785,,,
3.17,1.050146847187761,-0.016501303074924492,9.86760525092324,-0.004804559781933695,-0.0008381494963648474,0.002736611652432353,,,
3.18,0.9965081745750637,0.011772916797870894,9.797628327267777,0.0035491035388805895,0.0017592938576564596,-0.012585799403485332,,,
3.19,1.0795152851755059,-0.16238162826763772,9.805847548722193,0.006126740171288775,-0.0025864336262622035,-0.00533092991234771,,,
3.2,0.9653131469141665,0.04134528731603099,9.740574773472567,0.006644955504810086,-0.0012755104952114466,-0.003961976652212168,,,
3.21,0.9908442463848655,-0.060861217055082066,9.879961260042926,0.0046621390488141914,-0.009595805669380234,-1.7960592596670544e-05,,,
3.22,0.9768407168827862,0.05467549842296852,9.769145044093678,0.009021145523425068,-0.0011664736975846878,-0.003809672031900438,,,
3.23,0.9861362907995361,-0.05008094203842253,9.772919079899223,0.0014741342986518784,-0.007139577753459217,-0.008901831043690944,,,
3.24,1.0010161764575913,-0.10014280982089413,9.799041956596623,-0.003545514443016779,-0.005356080360129071,0.012004815507950769,,,
3.25,1.0228205783584785,0.0022685504497666088,9.747830085182883,-0.0022698156681846098,7.651314970755978e-05,-0.003122644564565032,,,
3.2600000000000002,1.0654031421758994,-0.0701348292950515,9.82233169320674,-0.0019302581998777934,-0.00017839670309042013,-0.0012024503592771296,,,
3.27,1.006455318646453,-0.02180650458889928,9.799930612130433,0.0034254693424855633,0.0001919418741871265,0.0015569302737341636,,,
3.2800000000000002,0.9984770833269021,0.029827201525999852,9.82485828780929,-0.0005334864391296861,-0.00047654985055936995,0.010482933414854253,,,
3.29,0.9529821895989399,0.028492844652767732,9.741991441938094,0.0020863657911431195,0.006875414138043654,0.004443342622336536,,,
3.3000000000000003,1.0285312539269897,-0.03802247344015378,9.838202360024427,-0.0002603140770167814,-0.004929883039656777,0.0005506219226256508,,,
3.31,1.029919058031322,-0.04836085342653202,9.796335908965764,-0.005801217187960872,0.0009536251304444803,0.004726616309835302,,,
3.3200000000000003,1.0315830222118259,0.03825852463643329,9.841043381854035,0.0029600546868287837,0.0005191871281878143,0.0015422999029089607,,,
3.33,0.9934589085935177,0.10070763078959556,9.814052451007324,-0.002329388555602182,0.001170049117250535,0.0032592720764750257,,,
3.34,0.9497604226194837,0.046133912728186934,9.831940271232456,-0.004554655476078603,0.00494392057176937,0.00512837785798077,,,
3.35,0.9567729004026043,0.07885914201288623,9.86958986841831,0.0009490194218747693,0.006951094028108898,0.002796488919148203,,,
3.36,1.0185958462447984,-0.04301500580109945,9.865742521965352,0.0033830148366198994,-0.0009265993005514436,-0.0019499317693380145,,,
3.37,1.0264964927083038,-0.013489939288106895,9.769976284063288,-0.006359061756620928,0.0018257668940488475,-0.011009441575258445,,,
3.38,1.030270526348063,-0.033904152887691226,9.902062330343995,-0.0014673410457693788,0.0022974210712594797,1.5430793811041944e-05,,,
3.39,1.0256874076743072,0.026841826546002562,9.81352221418377,0.00598277442249202,-0.005968489385532416,0.0034729642127918955,,,
3.4,1.0661319861393928,0.023001874589516746,9.93247224383677,-0.0028171965865533026,-0.00789574625674294,-0.0029716755424755974,,,
3.41,1.053022128327422,0.01489614671346893,9.84176283298237,-0.00461478524553565,0.002834336466645304,-0.004123523888252702,,,
3.42,1.077947479118845,0.13287192115699326,9.854972557328576,0.0039155406782887155,-0.003464298844477797,-0.007051066605434081,,,
3.43,0.9898640318484889,-0.06464476205493747,9.764299771179248,0.009611799709978247,0.00036431259012886493,0.0038984379030699186,,,
3.44,1.0045488817401875,-0.018643554122171817,9.884877534111965,0.0008383144065239228,0.0016534696901236638,0.0010199785107749208,,,
3.45,1.0028923554633977,-0.0803457082800931,9.737762546881642,-0.00030780950533200913,-0.0007175165400338365,-0.004430650183543955,,,
3.46,1.0182762567482684,-0.007312371850474899,9.72884959969703,-0.003575623297397506,0.0010363194686773426,0.003935293646978719,,,
3.47,0.962316254180012,-0.0020775974750132514,9.887770361268023,0.004885364794954491,-0.0014764289350696728,-0.0003398815666214622,,,
3.48,0.9885327757832748,0.013390989145482856,9.846405198657143,0.004147020030511002,-0.0003406309343942401,0.006093819751737209,,,
3.49,1.024729626647885,0.029234435806584323,9.880191138518331,-0.0030226331511240675,-0.01004072023435373,0.009717464280072766,,,
3.5,1.032832936535613,-0.09572429477480608,9.800959025139063,0.004859371461849142,-0.0023983841556644648,-0.0005603070965956355,,,
3.5100000000000002,1.0900440930156483,-0.06236435731919053,9.796742332112258,0.002056932375241338,0.0009522746602694113,0.004481715171703657,,,
3.52,1.0655619022284473,-7.106896592415715e-05,9.86111919694692,-0.00029604629657541603,-0.0006865084838164288,0.002537670900268172,,,
3.5300000000000002,1.0307549067909518,0.02862699037913804,9.86440728409724,0.0012210850145009155,-0.005045629924705199,0.0023383562903135477,,,
3.54,1.0185991107552128,-0.00034092100934008177,9.94697626535702,-0.0016188638927061771,0.0011114450956267977,0.007342310336221491,,,
3.5500000000000003,1.0249000957049692,0.10689225595860827,9.817748035413425,0.0026204461116002354,-0.00499402872446491,0.00024237632428353436,,,
3.56,1.0324466955198328,0.032315203115386486,9.852604741701178,0.00729557424667368,-0.0014748265529633587,0.00033915735080497326,,,
3.5700000000000003,1.1551992553639694,0.009711882472101538,9.800675922701071,-0.002471318811240344,-0.0057133995726567025,0.0066828467792839396,,,
3.58,1.0017811353553379,-0.0036318762171757193,9.833474566278085,0.004657462039704673,-0.0052337204644201,-0.0033778614307150776,,,
3.59,1.0312148653590798,0.02004796423499485,9.853276615654881,-0.0030472686454866378,0.002387424210456969,-0.001719304635478171,,,
3.6,0.9939230677606808,-0.057197676236100115,9.901707917432601,0.004167107705136746,0.002024966878394367,0.008236057105712253,,,
3.61,1.1606324624119362,-0.09546130519550777,9.799731170956143,-0.002080875420872619,-0.005254098111913464,-0.0033879162380185627,,,
3.62,1.0050173467972316,-0.07083018576447024,9.85340211837687,0.0012584916071430733,0.0014051433238182766,0.0045386422581912625,,,
3.63,1.050150342671334,-0.028670446841194117,9.942707170131682,0.002172155582410489,-0.010312423763123975,-0.0030118787288310874,,,
3.64,0.9329748505486093,-0.009133268542434634,9.830559738797332,-0.0013421284894972892,0.00905463056200257,0.004744914370384554,,,
3.65,1.0563049180723167,-0.056553674397105166,9.786692755433448,0.0011840274954847737,-0.00013496430173887087,-0.007281557835572286,,,
3.66,1.0109846488575234,-0.00929639585632476,9.825892541711442,-0.003066952061733382,-0.0036976759096057003,0.0011157040321360199,,,
3.67,1.0245400011805024,0.020239579127528398,9.890692810247542,-0.000471738617636249,-0.003280780980576789,0.004188278367671531,,,
3.68,1.0505422458205427,-0.03171002166294428,9.876169673848308,0.0058979267057798655,0.005458432328293366,0.010891604533599112,,,
3.69,0.9766791930670281,-0.00930508953337444,9.837213884830932,0.0005096321573374621,-0.004246314598050681,-0.005427810016155357,,,
3.7,1.0246339723014501,-0.04841778297739563,9.84094967403738,-0.0029702177084942665,-0.006498291729221707,0.0031714918018844887,,,
3.71,1.0275460763403248,0.018964098566046646,9.94594318832088,0.0023864476560542342,0.0014254088353206481,-0.0033878066443366267,,,
3.72,0.9556546279731812,0.0691414723386667,9.790476011003333,-0.00421972035734321,-0.001195494606082765,0.0015490379331130582,,,
3.73,0.9748746746778354,-0.025248660935655004,9.898118785882504,-0.003029968044158988,-0.007968362421830858,0.006712968104498961,,,
3.74,1.0446148455969018,-0.04102593103243308,9.757541649193653,-0.002723116782192816,-0.0012735221842463565,0.007828360449419095,,,
3.75,0.9681709012565172,-0.014225994075573671,9.870407232994744,-0.010906336700609604,0.004168930839694499,-0.003912252861032187,,,
3.7600000000000002,1.0365997746728468,0.0023341574805372037,9.890879319573191,0.0037546219044677018,-0.012886452458649906,-0.0019238962357799568,,,
3.77,1.026910256467664,-0.01974899430598935,9.860530536487838,0.004946832778348527,0.0020422586821483954,0.0009286252872276739,,,
3.7800000000000002,0.927683149443976,-0.032774062442740864,9.857468407406946,-0.004452236262752388,0.0021563736506078814,0.006541966486336522,,,
3.79,1.0263433488147922,-0.1631889933156198,9.772745581864408,0.010430945792780408,-0.00373268896514189,-0.00792071611564498,,,
3.8000000000000003,1.0817623694155136,-0.009332220422816357,9.891897024447886,0.0023847933760968265,0.0012927956810608442,0.003815046238572583,,,
3.81,1.05487441559605,0.10387152242780492,9.885200316797958,-0.006901696589227675,0.001233307576394517,0.007707403840516089,,,
3.8200000000000003,1.0801350403268073,-0.03133024915295498,9.894897222259406,0.0056387119977560265,0.011862587184848651,-0.0017500086812425575,,,
3.83,0.9946299711799788,-0.0253059524229977,9.81213889249806,-0.003450103748818015,-0.014813377528368716,-0.00017349736861567043,,,
3.84,1.0384679029849953,-0.034661092275295534,9.933419059176455,0.001066879063579313,0.005455145275920678,0.0033071020636498416,,,
3.85,1.061320365494663,0.003962077696678114,9.905089231595177,0.0012796967506620036,0.0014806035404439288,0.0038316646682502184,,,
3.86,1.0055857270936341,0.01024911594623384,9.948369312309882,-0.0003519847104772101,0.0010973244642662416,0.008288894754347215,,,
3.87,1.077012664047214,-0.009414179114031737,9.717480564852131,0.0035835140932423313,-0.012097371293115264,0.009349686154706155,,,
3.88,1.028473693559663,0.03998370099359945,9.791544443090947,-0.006762537366500272,0.000303771920705836,0.0018319828002192901,,,
3.89,0.9954229586921417,-0.005766935963361811,9.975021794601611,0.005172627736845289,0.004247493029316595,0.006219684457766778,,,
3.9,1.0939731071926098,-0.019503583645037244,9.733911934616234,5.706933496995106e-05,0.0030586785499825088,-0.002849001975575368,,,
3.91,1.0111817024755334,-0.04458848715011566,9.911751462592155,0.004747285077032819,0.002257703103219795,0.005108006565604856,,,
3.92,1.0181375373723938,-0.00012218587362482387,9.777390770973383,-0.009932209893752836,-0.00024959434827487965,0.0036199512813607218,,,
3.93,1.080463228421269,0.06856679080411839,9.915149924249945,-0.003990117966469389,-0.0027613251747488467,0.004401671479406897,,,
3.94,1.1465952338871088,0.0640049601856958,9.892619858099918,-0.0009389397777464529,-0.005415998155775623,0.005944539416916197,,,
3.95,0.964966936788282,-0.021921817549015135,9.830911102549903,0.008964560445614039,-0.002773486514798388,-0.010196248192863078,,,
3.96,1.0452222323831235,-0.044951092655196326,9.838781551221887,0.0005664764957893818,-0.0023685199790888416,0.0059517029089235195,,,
3.97,0.9433567560823647,-0.03585071124771801,9.870851895655868,-0.002070423876721841,-0.009044033546349858,0.005342776716283679,,,
3.98,1.076154731522077,-0.012249760382150317,9.738607720076523,0.004529848733494081,-0.009299439407098441,0.0035439963842408286,,,
3.99,0.975626808762892,-0.06799196428834826,9.814554499146015,8.351221786370082e-05,-0.004221041251932241,0.004943516391075754,,,
4.0,0.9976965310770584,0.0390095435835911,9.850708658282173,-0.0024877860329815403,-0.00532969941916143,-0.006237481495237193,,,
4.01,1.0345366588933411,-0.027729377362567906,9.718040223596823,-0.0016785743638470007,-0.00550517014627476,0.009878387960853302,,,
4.0200000000000005,0.9348610694053345,-0.08206753998670269,9.892148482155283,0.007783815787319816,-0.004724914693628207,-0.0011604291140445543,,,
4.03,1.0508117698276656,-0.1263549898472655,9.743590315774721,-0.0004036670042535592,0.00674945283064563,-0.00017865044083369792,,,
4.04,1.0250468395867578,0.046689463628200596,9.941994236663906,-0.0018842423657415629,-0.0010841836186671304,0.011110276106714213,,,
4.05,0.9438900362404286,0.04137905352769109,9.785734223381937,0.0015123618355157836,-0.0022130952370013716,-0.0027900580035061465,,,
4.0600000000000005,0.9708449036170863,0.003820718212687724,9.886426966408132,0.0003513189840574839,-0.0006494342063339182,0.0048558703314552365,,,
4.07,0.9714190613493521,0.026984625420646148,9.877617154852986,0.01401813149375205,-0.0028805209527979114,-0.00029040900834063823,,,
4.08,1.0584482935786872,0.030955208445606917,9.809895642331163,-0.0010158133846502443,0.0017056541910902023,-0.0021379212036733075,,,
4.09,0.9994733005992493,-0.005520361631578268,9.886446934241112,-0.002022993080897704,-0.01021192231015336,-0.007582987337591055,,,
4.1,0.9570293466646933,-0.07565838590999686,9.828919462069003,-0.0049444007679880254,-0.004513774799106021,-0.0018704294249102488,,,
4.11,0.9979746069576003,0.05612521657615612,9.869747379471525,0.0010806470763800194,-0.0033051314029041907,-0.000166163283115106,,,
4.12,1.0363873234975975,0.019208453667614513,9.791269124694969,0.0011824037780711575,-0.011158097843315135,0.0030585689208529852,,,
4.13,1.0581074620979343,-0.02400343134404377,9.927476349807003,-0.0034061922371802517,8.72020765163063e-05,0.0018208762666702227,,,
4.14,1.0149851166278296,-0.015716108400237384,9.842005251500472,0.005239793717318499,0.005888681181373721,0.001988748777479213,,,
4.15,1.0607658036085816,-0.045088347313339126,9.874947772636311,-0.0028099576191349517,0.004453299680440661,0.013053204386966197,,,
4.16,1.0138958056014304,-0.11962717454037043,9.809246353337757,0.007159375671446516,0.0017653839351262244,0.003244567993375148,,,
4.17,1.070433417797742,0.014222671962421102,9.897536259372556,0.005597118383234928,0.006608502263684794,0.0037939804195312715,,,
4.18,1.0652629700746978,-0.025356353654289274,9.806576959422049,0.009533838202094868,8.102338161344023e-05,0.006024402829311895,,,
4.19,1.0261870007205696,-0.039325782545998215,9.83719914462912,0.00817997008883857,0.00177620037139712,-0.006557365798652296,,,
4.2,1.0092377771711922,0.07911468963523562,9.8259601569075,-0.008002393458670903,0.008465244427112717,0.005411962549063964,,,
4.21,1.01649935705936,-0.028570886804103433,9.890767596489585,-0.0017099170011309625,0.004741282122579941,0.00471097642862128,,,
4.22,1.0322340962743675,-0.0027242597332202325,9.82790159816429,0.006228200601046329,-0.005326714160509171,-0.006109625634151046,,,
4.23,1.0507220061446239,0.02156191640335739,9.860662057625587,0.0030386418480901943,-0.002602701891687739,0.005937413521927626,,,
4.24,1.017722093662273,-0.034355678040758904,9.82105543438723,0.011103198493879161,-0.009674880410227165,0.004498940521478994,,,
4.25,0.9360444786188141,-0.015411666916148661,9.814968625742289,-0.009425141483399388,0.000945187952168815,9.980968903902068e-05,,,
4.26,0.9150396828719378,0.031978404538712604,9.908400308899445,0.00845062171148286,0.0007947822032573558,0.0022302906928855777,,,
4.2700000000000005,1.0864078310447898,0.07411917926700493,9.893328435143781,-0.003707688011149006,6.724266074609447e-06,0.004197580721457143,,,
4.28,0.9295191515541386,0.013468032981038708,9.950299591298968,0.0041996808290039565,0.006367065407208781,0.0029145736506435253,,,
4.29,1.0163390838008088,0.009063569504048777,9.795858667600777,-0.003818875936171943,0.005331522785846829,0.008861711714332591,,,
4.3,0.9704446842206325,0.038399940227693226,9.832302001219698,0.0026990428724521526,0.001301093197175317,0.006971752340621592,,,
4.3100000000000005,1.0241359100931595,0.060508099765096794,9.852120641987995,0.004120921362347663,-0.0051663129576862326,0.012793295053524171,,,
4.32,1.0434912461602484,0.02564987126725496,9.756240709439421,-0.0031135101153955047,0.005189418439593653,0.003434455591463024,,,
4.33,0.9243110132585537,0.04191449644919095,9.809460859782362,0.008056584929383562,-0.0014391783930184983,0.00302353343010265,,,
4.34,1.0789477289295824,-0.05487464854273312,9.787007659608301,1.7507898009463388e-05,0.003135863998106111,-0.004654386263067453,,,
4.3500000000000005,0.9365982700055452,0.031186046352189613,9.806501084371648,-0.0009611300646014155,-0.010284052009700829,-0.0013948965717599108,,,
4.36,1.0196216351684424,0.036518892881144606,9.798088491688267,0.009286880601162482,-0.004422780120899004,-0.0014154590079258735,,,
4.37,1.0968678775948901,0.0005730076181958577,9.80904876354942,0.00022433434409703285,0.005765367887710296,0.00933101409812841,,,
4.38,0.9791603410364872,-0.012121690503955411,9.841157841383378,-0.003931200552582988,-0.0012784252632499714,0.0020266143022585024,,,
4.39,1.077010473946837,0.050371251415560044,9.820189530082049,-6.976571930405844e-05,0.002321461510278178,-0.0009259422446350573,,,
4.4,1.0494320075868702,-0.014395324368460737,9.788180071113068,-0.003784183564398233,0.00623529348015551,0.001217892604283507,,,
4.41,1.1020177046949156,-0.035681813035745504,9.851210260056574,0.012963383615091209,-0.006286933723316396,-0.007489072499498883,,,
4.42,1.0843295065643617,-0.05134045526965369,9.835614681794688,-0.0019295910522579246,0.0003408139047765804,-0.0027526810359287113,,,
4.43,1.0110029956058346,0.012490766327826712,9.786234555686285,-0.0025004201482294445,-0.002736914167992659,-0.0051440771711313915,,,
4.44,0.9988719508600628,-0.0040601730048549075,9.816672552920577,-0.00035688246465862277,-0.0010995083545329268,-0.00127871731216157,,,
4.45,1.0545531282933438,0.06179890624008879,9.813430980390226,0.0034259911573885356,-0.0021980857771732344,0.0038274367251925237,,,
4.46,1.0982889765601627,0.01543297715090494,9.747979273059515,0.003269978157234795,0.005164318716545047,0.0008920191500094866,,,
4.47,1.0697817403058916,-0.0445057770575973,9.762373042023885,0.0017058450941632008,-0.00978238360373157,0.0008011449355320411,,,
4.48,1.0843421131322752,-0.10548814528731404,9.772675160204304,-0.004160161225807888,-0.0013165992985548,0.00017141607176895382,,,
4.49,1.0899568190848044,0.03771741645458487,9.86141364730343,0.0017281515717194242,0.0009661488849241366,-0.0023099117765668746,,,
4.5,1.0628605176778305,-0.06560221271796006,9.87841884969511,0.006930712510594155,5.4323010440435844e-05,0.0011189347051901207,,,
4.51,1.0400154954154837,-0.15307591850503366,9.851762910924272,0.0004332300108009649,-0.0012531405652849552,0.0055326625644891375,,,
4.5200000000000005,1.0162615539217636,-0.0670103428325579,9.82957986645873,0.0013377774204041224,-0.0004253304420949363,0.0028095968364253406,,,
4.53,1.0719684522459276,-0.06430172765170737,9.84543502280824,0.007449648493091205,-0.009673057484685978,0.002898233403900268,,,
4.54,0.9907310749013478,-0.02853551922365525,9.791409624839277,0.00015224642149777958,0.008206278072134521,-0.004322151805886069,,,
4.55,0.9615194998760587,-0.07509672850817523,9.923020914331405,-0.0013116985276064347,-0.001128195301738371,-1.3914705531198421e-05,,,
4.5600000000000005,0.9727788560798455,-0.021757532330721772,9.959562180286827,0.007960354604871274,-0.005264689088961361,0.005237870515308428,,,
4.57,0.9784238613666811,-0.09881838194231105,9.88762554588323,0.006800464233217754,0.004230261255239497,-0.0003493262460978635,,,
4.58,1.0116612132999008,0.02748827768290616,9.856224801867404,-0.0009681873564852217,-0.009095359100590825,0.0025693759707100614,,,
4.59,1.0739504819618058,-0.06987941445170785,9.868587969083798,0.0026577084756684633,0.002750741316161668,0.006359877498595037,,,
4.6000000000000005,0.9852767379037324,-0.0908479700082473,9.809974023715855,0.005445636587635037,-0.0037100195176298554,-0.0014702166192882096,,,
4.61,0.9289324829037681,0.07763237772754696,9.877935682071264,0.004849479906373822,0.0038386269338973687,0.004883541807717008,,,
4.62,1.0077835572410236,-0.018188205206110083,9.815271781770393,0.014173703772075,0.0017795601564972127,-0.00031900220675717267,,,
4.63,1.043274838708314,-0.06054344589281588,9.91187533592946,-0.0023053454790357007,0.001505427163112329,0.007329888148715672,,,
4.64,1.0392384272102497,-0.005276500409018089,9.837190104242799,0.0007177945155644643,-0.003883492444637511,-0.0002474171488485214,,,
4.65,1.0939795186825467,-0.015426831634257834,9.79736018653086,-0.001581487984307543,0.004501853403486115,0.005378033165822392,,,
4.66,1.0480164589116128,-0.022876059945489573,9.865318123508645,-0.00221780562475324,-0.002298070156728873,0.006849022436958727,,,
4.67,1.0637138839459532,-0.059095492297540166,9.79387367735457,0.0015435107640670485,0.00763066187334755,-0.0075778258223449715,,,
4.68,1.0339166469785253,-0.0788021665786574,9.804933450323722,-0.0008221420903212072,-0.0031025417171844545,-0.0006689796982960422,,,
4.69,1.0203603530188186,-0.03676277833152892,9.763527130757291,0.004899348062613882,0.0027643608357444025,0.006215871550113345,,,
4.7,0.9429632751867959,0.004945907629207541,9.870448942790345,-0.004156010342197925,-0.0009541337590893543,0.0014186667734481712,,,
4.71,1.1121075329284131,0.08622480185062865,9.753432180333489,0.013469635028639949,-0.00557612860576662,0.006903366471637129,,,
4.72,1.0685248990431866,-0.05978451134209034,9.861313389691954,0.0004623312786696802,0.0017716500231619533,0.0031533615119031288,,,
4.73,1.0798169742685124,-0.006230022842696887,9.828256296528684,0.006480321165285902,0.001901979824293017,0.00565906697160444,,,
4.74,0.9867706663870702,-0.06226313906992371,9.808263892837363,-0.002104106928402943,0.002930996343264572,0.006879920251470259,,,
4.75,1.01224348552338,0.06154595094121761,9.905073469688256,0.002216994582002696,-0.0051094588577152,0.009876883247177701,,,
4.76,1.0169491324485795,-0.00369174017845127,9.81966974871967,-0.003448951631485988,-0.00834319715157646,0.00516434161778644,,,
4.7700000000000005,0.980829947305169,0.14297656144984117,9.782346320869374,-0.00528691237490685,0.0015506935780672058,0.009646567394836478,,,
4.78,1.023229482847161,0.01861212100936372,9.744472629127063,-0.002387557728458834,-0.006368078645687835,-0.007475229249739406,,,
4.79,1.0258490117011945,-0.12214138108052168,9.770540201695626,-0.0016859689700670904,-0.005156429179755381,0.003982042511035339,,,
4.8,1.035279009595124,0.03468993729677284,9.874269186635633,0.006704063946806904,-0.0010095920000452708,0.0035173345040833484,,,
4.8100000000000005,1.0455756850959597,-0.0029171651304487145,9.816790284504146,-0.0006622126716988512,-0.005087791991649828,0.004108084149549149,,,
4.82,1.0152992412957422,-0.04315868753183825,9.80353775903377,-0.005051993638913943,0.0038942067061859984,0.002393088347658938,,,
4.83,0.9768599990213365,0.03042738748010091,9.80862755951028,-0.0060325031350611635,0.004106111446095665,-0.0006854849478305654,,,
4.84,0.9995550454895605,-0.007940998982541126,9.893779461139504,0.0011001864543315584,-0.006995585630726151,0.0047193850205609015,,,
4.8500000000000005,0.9957505137869138,0.08439619857647332,9.836594013900104,-0.010175177489493332,0.0007868248607783698,0.011722988961301143,,,
4.86,1.0987960144272695,0.08154771443782828,9.785661990730926,0.005560761979883894,-0.004609972698683558,0.0031214469970846223,,,
4.87,0.9563523785630134,-0.04222278824413582,9.802837665131818,0.005492776400713081,0.0030035956083482775,0.003384098646654104,,,
4.88,0.9524789290972308,-0.025581971697486,9.799344175852863,0.005348378783472455,0.004890924264085923,0.007281927930154416,,,
4.89,0.982239029029149,-0.14697665611447397,9.748301905093497,0.008108134890411043,-0.0030062746965991197,-0.0017536230913255627,,,
4.9,1.1021330146718118,0.053257997274416345,9.837872436095989,-0.00046701545531986936,-0.001660506064065626,0.0031358139919373303,,,
4.91,1.1000023640659804,0.011123371211861336,9.872951451651955,0.006846350545350857,-0.006848380005122095,0.005774309462370215,,,
4.92,1.0052715622669195,-0.13580475978863832,9.730241522900709,-0.004090588057593428,0.0016561161429629071,0.0025689978267014824,,,
4.93,1.0292183353587832,0.08754717413433462,9.773195519257008,0.000862833229081382,0.0005221776140690779,-0.0016813655826916777,,,
4.94,1.0214163372541472,-0.08999746670421725,9.90714531086375,-0.002408072762652169,0.009157000823892515,0.0018376283804127248,,,
4.95,1.0714026782699593,-0.01266514344955772,9.835112808386972,-0.0019201466661100388,-0.00040438035316861184,0.003589993472070237,,,
4.96,0.9807870745542411,-0.01625222079299421,9.806145056697144,0.012498320348074195,-0.0014486538495580928,0.009726160758482797,,,
4.97,1.0102188834596155,0.002964382076745398,9.770581796417735,-0.001235362959339323,5.267335394623369e-05,0.009930019154799333,,,
4.98,1.0310991388838135,0.05918601805964995,9.868686455510145,0.009137006697323428,-0.001295211086525277,0.013951113553259021,,,
4.99,0.9957301898542938,-0.048323091709883456,9.776147357515548,0.01265512335779035,0.003097237863089488,0.0003293963330984577,,,
5.0,1.0824511348436747,0.024384609255889096,9.93495637356878,-0.006739164163699557,-0.0023268005415712726,-0.00031260691971412733,,,
5.01,0.92131586617957,0.043016360238984704,9.823130172209831,0.004698156024932811,0.010798859671648058,0.00023378154086195848,,,
5.0200000000000005,0.9989423508671422,-0.004066791513800199,9.886012367649169,-0.0018335651265507496,-0.004154807985660654,0.00728594635120683,,,
5.03,1.0389319661919019,-0.11223641315024104,9.775380410026543,0.008506179319136052,0.0010096414153940624,-0.001810979655186245,,,
5.04,1.011479517138251,-0.009338166359916491,9.873436668014007,-0.005791316974293947,-0.005204745693352291,0.0033647787743169445,,,
5.05,1.0150082709752275,0.018592959131835493,9.77517463013202,0.0027856433813566056,0.004457918096887361,0.0044340927357464175,,,
5.0600000000000005,1.0269555869880795,-0.014794180128298544,9.794907442361424,0.0006400070378010576,0.0052985292644020295,0.0014048574669993739,,,
5.07,0.9755098005325795,-0.034612354438269315,9.846692514863795,-0.0008675699859042347,0.0014265164153157033,0.004614218803745152,,,
5.08,1.0644491590202325,0.06117797361325165,9.886442936218616,-0.0036711953207397997,-0.005517672232881361,0.001621142617700878,,,
5.09,0.9974412321380293,-0.06691633634804714,9.81456541029135,-0.0013725646680951952,-0.004359238698806029,0.00042105256922497195,,,
5.1000000000000005,1.0789225425159166,-3.809793753803761e-05,9.960240453802772,0.0018525409300982469,-0.0024503288696862587,0.0020206644132743307,,,
5.11,1.032824598922177,0.011762697858553184,9.94048556629295,-0.0032266023248878435,0.0032952302908886783,0.0030387529880706193,,,
5.12,0.9414451128714691,0.028534939104738165,9.900031178040194,-0.003285882018887149,-0.0010446693394598535,-0.0066267713100385175,,,
5.13,0.9570596770157832,0.04240147888086263,9.813329174699627,-0.004544014874690196,0.0001473018222921485,-0.0006120621571551162,,,
5.14,0.9964589171112233,0.026966301283745164,9.778563332053281,-0.003526826063409161,-0.00022960003925565683,0.006847048953741027,,,
5.15,1.0819080150744924,-0.04325308601808116,9.88351884834598,-0.0029207114673520445,0.008131046734533999,-0.003668855127098642,,,
5.16,1.0864239405395866,-0.042824305340936196,9.937312322739729,0.003956603644262422,-0.00608008264704111,-0.0006111923977125339,,,
5.17,1.0590590602611871,0.04263222088077807,9.833114220413776,0.001223291404817332,0.0027917651632203278,0.0026589921350540996,,,
5.18,0.9553247570330812,-0.050648701232009034,9.848405997157583,0.007077412082488468,0.007079912120810238,0.005897647103857252,,,
5.19,1.0343645380518183,0.027440694299123852,9.803312457489657,0.0002338451987089292,-0.0051206536066973835,-0.004243713053538558,,,
5.2,1.0366774505818102,-0.0007243346707628204,9.87103262422545,0.003730559154462236,0.00021322135661931002,0.0047830833283877714,,,
5.21,1.0178658451886262,0.01064456976112003,9.80034277986568,0.0028485296281956507,0.002342088426430047,-0.0013484071403610156,,,
5.22,1.0225916049496424,-0.04118012548146798,9.810324665174193,-0.004624646775510773,0.005328874625832778,0.0073284258736002385,,,
5.23,1.0468716927113668,0.0886097975971907,9.82718771517158,0.016158812075553173,-0.002137647076816102,0.003275966758780082,,,
5.24,1.0001111043029896,0.008616278003015251,9.878430746394312,0.00043041803473458035,0.007883599235588103,0.0031957464231673035,,,
5.25,1.03352426930551,-0.05544988472568588,9.857574953727518,0.000329863895953172,-0.004041198646686435,-0.0018823720407418194,,,
5.26,1.1535881689878342,-0.023173862508951773,9.763800728960936,-0.002491107298662863,-0.001257839197381068,0.004733335163082425,,,
5.2700000000000005,1.0477398260862656,0.02383072758882627,9.804406984668132,0.002702202217507727,-0.005380297320552892,-0.0010982149150700585,,,
5.28,0.974114551274987,-0.06941944272991347,9.8898604744429,0.0044430585048944385,0.0038833268498906495,0.0021965653301214815,,,
5.29,1.0588403849432573,-0.09806447023212725,9.879804375902266,0.0018855991500251511,0.002135548000745828,0.0039001164952430657,,,
5.3,0.9706472422731557,-0.08490198876955232,9.80104729169085,0.003824586406364561,0.002450457075876977,-0.0048397113869093145,,,
5.3100000000000005,0.9709450316265893,-0.04616178429704197,9.818784746986658,-0.005810254154263261,-0.008110258830700663,-0.00210917648203777,,,
5.32,1.0243126918112504,-0.06902971698767453,9.83085982450141,0.006292764080709077,-0.00750889868706755,0.0009677712079473027,,,
5.33,1.0712378366875386,-0.030913419518190467,9.807966515457078,0.006817479071532369,-0.002531010394857739,0.007522475126027839,,,
5.34,1.04144826955636,-0.027142232645491836,9.860634526529875,0.0026022475692301893,0.00410441410501237,-0.0007417276893250924,,,
5.3500000000000005,1.022060303339081,-0.01307578398023187,9.871857407081988,-0.0041258959722208785,0.00408488524118928,0.004331643860852083,,,
5.36,0.9541537463183527,0.05041314127402502,9.948354654039886,0.006009169847747039,0.006134923836132346,0.0024268569080129407,,,
5.37,0.9369247540130745,-0.10220602255837624,9.849404102193386,-0.0019598940386499003,-0.005572881391636757,0.0016862665801566233,,,
5.38,1.0507792643930645,-0.08263787733810736,9.814206118985979,0.008549353415601577,-0.006376441901106873,0.006348805935824782,,,
5.39,0.9957634619225503,0.017289687992497638,9.891516375360142,0.004706408834925108,0.0035457980110693826,-0.0037579676670397803,,,
5.4,1.0756829853370649,-0.052634655731741,9.849627088278575,0.0022912309349861345,0.0014256127943479049,0.0036847833803009527,,,
5.41,0.9778095010737639,-0.07749337061478581,9.880267433998087,0.0019291728875945777,0.004746884204789089,0.0017763353290606602,,,
5.42,0.949741781966152,0.03830648405020531,9.818131469516944,0.0027100172871051056,-0.004237297142397596,0.010221508551168454,,,
5.43,0.9761717587908402,-0.026871487705308734,9.842022435134865,-0.004460911635434791,0.0006525976429379758,0.010059552387337451,,,
5.44,0.9954768919653145,0.009757140951586274,9.69917823069807,0.0008053539975757967,-0.002565211429631027,-0.0020924880120519245,,,
5.45,1.0740725234814266,-0.02631218408119141,9.82777612564532,-0.0008859643739453557,-0.010584079358825382,-0.0036599322003848054,,,
5.46,1.0680546743060109,-0.1154975323439986,9.798334232519213,-0.0009986002814488192,0.007718109336457827,0.005843018827481845,,,
5.47,0.9921414736473451,0.05522568485577755,9.799624208974944,0.0060454990186700275,-0.007794386229615078,0.007366289158945786,,,
5.48,0.9996933177264508,-0.06142521204706349,9.825792819346184,0.0023867208986010744,-0.003473742152628561,0.004769767529976619,,,
5.49,0.9908503058167967,0.021018619696567896,9.858761103101829,0.0006953847264603249,-0.003206911561829749,0.002757703978826331,,,
5.5,1.0475126871516849,0.09308995763658043,9.883621021089908,0.005879949749079206,0.014442560974301417,0.004579792383839221,,,
5.51,1.0442321755655852,0.025200753716082706,9.786201701120586,-0.0012195081820937808,-0.00353084633346167,0.0052380698860978086,,,
5.5200000000000005,1.0112912718889402,-0.0030888287262848596,9.891022731007421,0.005315753693520694,-0.0018086050152062352,-0.001349975484391112,,,
5.53,1.0767637365826594,0.02869455904549329,9.756337159085229,-0.000565769694541404,-0.00017242268991618796,0.0058941485856051565,,,
5.54,1.0655050747469885,0.004195300058773674,9.865912376567941,0.0013206840118907682,-0.004369258440902803,0.00069367804479373,,,
5.55,1.0209495593320055,-0.011733962500929495,9.742371354777825,-0.000987416674647156,-0.0007189717345542407,0.000593150040471495,,,
5.5600000000000005,1.0076588102244208,0.014399568540229371,9.782702140647567,-0.0071402110697560564,-0.0027408489541833744,0.005820572027508948,,,
5.57,1.104377651974332,0.029106411954737003,9.763236812006557,-0.00016183619688385584,0.0002831719054076471,0.002887955584617961,,,
5.58,1.0469652276471437,-0.05585244732303804,9.839897154377535,0.003101614148880645,0.0031283547665182975,-0.00202859083306396,,,
5.59,1.0027421566378552,-0.14519088400366703,9.80557690162111,-0.0016220744648552153,-0.006097922540837216,0.0028280607511632586,,,
5.6000000000000005,1.0172027283977365,-0.12296069387888058,9.847425398465086,-0.0036416206539451376,0.0014284447959525756,-0.004409256238643328,,,
5.61,1.021500326926547,-0.024158166444325297,9.851805094247515,0.0016234863882567344,-0.0022758208751072723,-0.005681361570221224,,,
5.62,0.9461396018269485,-0.03919434695461095,9.836236005803519,-0.002041239735995585,0.002126059652897328,0.0006038954039415817,,,
5.63,0.9717493637610245,-0.023904814649395468,9.847942991815826,0.002624423594122922,0.008391895659965648,-0.001344546700017097,,,
5.64,1.01632606692048,0.01130619734097132,9.835478852039959,-0.0015030907299432659,-0.008746285881721218,-0.0005541727952650777,,,
5.65,0.96631487936411,-0.09633033405618892,9.79686605791647,-0.0042354586038322725,0.0019189327264647407,0.005005459187071469,,,
5.66,0.9748060355209562,-0.02301143152815606,9.743737866894373,-0.0014716997509134707,0.000994909503511728,0.006124689448070514,,,
5.67,0.9843476459154343,0.04259274302637599,9.760865403924326,-0.005238138995718963,0.0025483093281893814,0.010355606142816236,,,
5.68,1.0446715994091849,-0.012017119326700621,9.726890812673888,-0.009112235280217398,-0.0003529523155206552,0.00020968665214412727,,,
5.69,0.9647082408923942,-0.006723370958497465,9.84240656837539,0.0057220793427013635,-0.0003169885849364961,0.008141971841671923,,,
5.7,1.0203997014774406,-0.015766749740366806,9.889865609312357,-0.0038922044002071728,0.013072237266330809,0.003876287390833679,,,
5.71,1.0390414626418836,0.016254798698629877,9.930506823766581,0.0049625370583630335,-0.009025279895019618,0.009017351923837522,,,
5.72,1.0029551710277491,-0.004642246358033827,9.772687301391235,0.0036310100906194786,-0.004256871450337761,0.002500848189967369,,,
5.73,1.0057950497319608,0.0862506400867926,9.935763015007279,0.0012325658510737069,-0.0006801114431557263,0.00013278516825242464,,,
5.74,1.0753003145751394,-0.02644599351666886,9.815583136267714,0.005892964318324823,-0.003691495476583247,0.0018112248277573472,,,
5.75,0.9409344609244503,0.025209517256158345,9.933693346959092,0.0046061268639989595,0.006308995837736525,-0.002230510680886654,,,
5.76,1.03181621410141,-0.05715799621846948,9.825261722720931,0.004861057386762524,-0.0004908969344835068,-0.005063205113006108,,,
5.7700000000000005,0.9542485447231124,-0.07905819657453869,9.861222629496979,0.01131947267828334,0.005812291220001064,-0.007479925995730321,,,
5.78,1.0910537969034892,0.03682002085073236,9.75938500272356,-0.0005160080835524875,0.004477612057479048,0.004752167554673926,,,
5.79,0.9545452473806008,0.02053710778980971,9.729774970195969,-0.0001141108787860569,0.004689783847000244,0.0020919710778565994,,,
5.8,0.9950531225019027,0.03446731268861746,9.885387590754329,0.007550198464334751,0.003371712142231937,0.007406873969685733,,,
5.8100000000000005,1.0566454278718767,0.0032764324558235986,9.841125449988189,-0.00018629859548701007,-0.007061841465298629,-0.0027765575440990434,,,
5.82,1.0058992759032395,0.0020726079801214655,9.908690629900212,0.0007910138606224374,0.00401738145438832,0.007396578282160604,,,
5.83,1.0084276601155604,0.019734510568509195,9.824473597913755,0.007610679470392384,0.002179216691329661,-0.003952418773441777,,,
5.84,1.0280762326076924,0.072405608091194,9.827588448272664,0.0032385751504753406,0.0017293941886957261,-0.0031831144958230024,,,
5.8500000000000005,1.0455353974606758,-0.07969175760173128,9.805368794679929,0.00637861483747096,0.00078378145154179,0.000477610961267365,,,
5.86,1.0423230510622594,-0.013004612387756572,9.837278925117591,0.004284092633600688,-0.0046368387032956595,0.0022016820277734536,,,
5.87,1.0043865902696674,-0.08928016873001278,9.790627212187534,0.008841032235319162,0.0009236165729261704,-0.0046179415070069455,,,
5.88,0.9429822812075794,-0.015608195005529197,9.914709326658823,6.620932597823682e-05,0.00553499776702008,0.0037596538540932874,,,
5.89,1.0435625228922947,-0.07678602546522847,9.883526146087487,-0.0006746601863680361,0.003315462268054541,-0.0020708499099305654,,,
5.9,1.0288524673754957,0.007600147696881573,9.828948334171205,0.0030227259654307835,-0.002331985375962544,-0.001245298765206397,,,
5.91,1.1002741691396982,0.04244764331807211,9.79860676274759,0.0038422215279730644,-0.004713394273505765,-0.003923423218311621,,,
5.92,1.0716904720699487,-0.09520498128237029,9.882992795678826,-0.00026361156286529254,-0.0020577330154026435,0.004048756098116449,,,
5.93,1.0490599405997125,-0.051317158841445415,9.872536280437503,0.001566852690126117,-0.0072802739643401905,0.0011506275821013042,,,
5.94,1.0890639507779463,0.07382973991228484,9.872517422880433,-0.0049517174408418504,0.0014530345122794413,0.006254304519295964,,,
5.95,1.0562853991659362,0.02924771443439591,9.854813153962375,0.0006379383058472815,-0.0040418374795200916,-0.0074896775925074825,,,
5.96,1.0369820883356675,-0.0006973578173905728,9.86452879214124,-0.005687718466464471,0.0022250834465753016,0.012272725473103886,,,
5.97,1.0239225065388955,-0.013083265960327042,9.852100117804284,0.01116168512355169,-0.006118238808499455,0.0030160346669695247,,,
5.98,0.9800171288851178,-0.03735023604224975,9.834170484605902,0.007736616208067794,0.008004953003443685,0.004240710723133532,,,
5.99,1.0011702638488258,0.11463694333192594,9.815272275933523,-0.0018556795717986868,-0.009874715222893633,0.008980457846223717,,,
6.0,1.0684122796185647,0.11089027680582231,9.767173832389092,0.008290854037395549,-0.000649322408169363,0.006030501084000682,,,
6.01,0.9376111429447764,0.06340409113326487,9.87597583756659,0.0008054498260689125,0.002225563438305607,-0.0018274765052112459,,,
6.0200000000000005,0.991027995720915,-0.033172230681269815,9.744013606915486,0.0053087924710168355,0.004957968070912831,-0.001506720748819208,,,
6.03,1.0374101507972409,-0.023277023731461816,9.85306369810405,-0.002137886206055146,-0.005417125780438179,0.007260374430118713,,,
6.04,1.0168064707437754,0.0911054475426738,9.838965498239705,-0.003630390201752461,0.0051347043821796945,0.005154000820730099,,,
6.05,1.0563436431848212,0.04953003394339593,9.804010185307709,0.00036373345507356226,-0.001857249157438966,-0.004453732684578092,,,
6.0600000000000005,1.0068204924920878,0.05681897289384121,9.84851690518969,-0.005730306639224939,-0.008779197058324674,0.010323880293741356,,,
6.07,1.0154840494872435,-0.04237051028508087,9.822950411755148,-0.006386538771586661,0.006115475747558099,3.473531206985188e-05,,,
6.08,1.088370076386921,-0.007417414277634243,9.90812659872842,0.0022834724952154268,0.0032661633143453795,0.005595465230441684,,,
6.09,1.0511645533125986,0.007396723859135529,9.82500746419422,0.0105771734578643,-0.005534684925479504,0.0020215382117157983,,,
6.1000000000000005,1.02074429376038,0.010122037667176073,9.815176367705273,0.002573731527947939,-0.0018442129260148308,-0.005909762587189496,,,
6.11,1.0204776143128425,-0.06502826665150759,9.749930711877553,0.0016843666034469249,0.0014394167100978323,0.004633490210522883,,,
6.12,1.0483585353509848,-0.10662945104703052,9.768599153604626,0.010867607184068356,-0.006236043800385181,0.005054205155683446,,,
6.13,0.9856531189167077,-0.006016363036621777,9.80498728988632,0.003807705773098224,-0.00031612941341650476,-0.00024144886822116815,,,
6.140000000000001,0.9674913940159645,0.0033887098746255544,9.776014060047869,0.0031374052106041923,0.012132424545184501,0.008750850256310061,,,
6.15,1.0559173943447082,-0.014280364887057383,9.739712368649823,-0.005611431979500921,0.0054139642805135675,-0.0019487804006238993,,,
6.16,0.9850373950917977,-0.018282523784201074,9.783547687057672,-0.0051338436727581815,-0.0012523703639071091,-0.002457647273360181,,,
6.17,0.9829490710110553,-0.049059551307350305,9.862768010691722,-0.0001606284524767864,-0.0018928598394692686,0.004984729486544416,,,
6.18,1.012898019588353,-0.023912688422858645,9.860172517778507,0.0043409892177881555,-0.001735367497543021,0.002403038878102608,,,
6.19,0.9809104885133336,-0.05303415215822628,9.87510737509834,0.0032247103127231087,0.0012764921920828806,0.0034042717436276113,,,
6.2,1.0223101637907477,0.024820594541138462,9.883405438051138,0.005556140025953238,-0.0015038895797299342,0.00893496364954419,,,
6.21,1.0314230340866162,0.021618809628289923,9.850754394541744,0.002235033537420871,-0.0046787599512515985,0.0055067541917241305,,,
6.22,1.162264719745382,-0.028739753739504166,9.840199735771247,-0.0012310263217363117,-0.0034400995078096726,0.009722247390593365,,,
6.23,0.9863514491136268,-0.03370402366831807,9.757275358813434,-0.0027880586227112367,-0.009541999464766738,0.005159023496059644,,,
6.24,1.1599848610918655,-0.028333939682526108,9.753312103350487,0.005499998322148666,-0.004634624794650785,0.008496734652767702,,,
6.25,1.0058985476105027,-0.04159078445413904,9.827752122212715,0.0047888838046809355,-0.002137103153778282,-0.0004836235139685273,,,
6.26,1.0100584198510565,-0.07359275922504424,9.856501580114697,-0.00793363296922455,-0.003220607271827577,0.005796926044153716,,,
6.2700000000000005,1.035152414146636,0.019516028649319513,9.833397716364058,0.006848730904927584,0.0036234959838489598,0.0042307050212383734,,,
6.28,1.0663772888656773,0.02752117772017884,9.814676824332654,-0.005719494558456668,0.001101810629213119,0.004730446154157143,,,
6.29,1.0745235995569282,-0.05681606375226468,9.791328447036141,0.0032995013315388518,-0.0013558349442654332,-0.00742880805285564,,,
6.3,1.0387554081877095,-0.10262114574944774,9.78938717240633,0.0077584068643005355,0.008124395089035577,-0.004078281842359808,,,
6.3100000000000005,1.0035304231293654,-0.007868873846064701,9.925711346379078,-0.0014643447391220078,-0.0033844201151663907,0.00974362779231431,,,
6.32,1.001260542364087,0.026110085448322877,9.762792851744377,0.00014383627953836885,-0.009297984191632021,-0.0032771689047785216,,,
6.33,1.061960067757613,-0.012495269554335633,9.82069471297235,-0.002743748119904588,-0.002103280366206414,0.003505565835503468,,,
6.34,1.0691458103230882,-0.14125733420484013,9.795061941286859,0.0017954812109450286,-0.0014943155798114293,0.004016881212633625,,,
6.3500000000000005,1.0333770143063277,-0.025243393149670362,9.810307340200639,-0.0002275074486775045,0.004743711749113713,-0.0016600396645285722,,,
6.36,1.0168596638428022,-0.0008328893000789494,9.914667546493721,-0.0005015412911815662,0.0037940332800548045,0.00815989701632511,,,
6.37,1.0168122867504676,-0.020535948953838125,9.820197316397588,-0.0002791156712129118,0.0032711993028841637,0.0031550498862775696,,,
6.38,1.0317644854584935,-0.06626117551899174,9.788275496131238,0.011717234123884899,-0.001889128626443448,-0.0018738599778918008,,,
6.390000000000001,1.0915549582794648,0.004090427434177606,9.865557745843224,0.0003097646235923321,-0.002593365452884021,0.0011520681375135483,,,
6.4,0.9508630914850686,-0.014396370470994874,9.851451653852129,0.010252316169218768,-0.0005700046749739225,-0.009670885211051526,,,
6.41,1.015300728360769,0.12697520665541528,9.87996831174925,-0.003054444719042943,0.0019555325721527838,-0.0017100671244487018,,,
6.42,0.9523096240226572,-0.02741846816170361,9.841226321961942,-0.008360777512166979,-0.006745796452693179,0.0020516778159117735,,,
6.43,0.9995913412005523,0.009740563557304538,9.77591658363457,0.004570568742766503,-0.006918795485300975,0.01021367150968815,,,
6.44,0.9342120857810842,-0.06462771351917063,9.85751854015159,0.00932116625748819,0.0005752151805808537,0.004814289600911956,,,
6.45,1.020876845083653,-0.06131992270575967,9.81214308258803,-0.005059548599906384,-0.007393549838884358,0.004008744596598732,,,
6.46,0.9638411008956019,0.00597770033616807,9.771558862388943,0.0024819151005837734,-0.0034434128448148126,0.009033077668253222,,,
6.47,1.0361859447789532,0.051789144649707075,9.79886766417874,0.0012807167012208365,-0.005905435790581392,-6.802621372209048e-05,,,
6.48,1.0068947888627686,-0.04629291103435697,9.775874857057714,-0.006067586618263264,-0.012698740578536986,-0.0032817323175172892,,,
6.49,1.0513746948335922,-0.08992492660066415,9.768243857687333,0.009954492856164576,-0.0041824802492412706,0.0036052300458241787,,,
6.5,1.0521158573250247,0.02312630648906401,9.760534288469596,-0.00015529839949745107,-0.009091136347591962,0.014231589294551617,,,
6.51,0.94025623679922,-0.06239201094349101,9.784619957257924,-0.006483302383614402,0.005762969548782727,0.014112239505417479,,,
6.5200000000000005,0.9962125440343691,-0.07602115734222051,9.724803725063698,-0.00022054359261050745,-0.002581827115807219,-0.0012564806318007228,,,
6.53,1.0310687626988115,0.009758657140774318,9.852804162896893,-0.0005806243598424361,-0.00650810914787131,0.0053291654890335795,,,
6.54,1.0206256879710764,0.034417876241732516,9.876153777473611,-0.006108810345235578,-0.008171111037288016,-0.001777703593702642,,,
6.55,0.9671867295854666,0.027762588798805034,9.854215483799395,0.006495919968926554,0.0009824340870545913,0.003043247909366845,,,
6.5600000000000005,1.0799864890172086,0.013486366986752424,9.840055048171886,0.008402265169653427,-0.0004240955842360497,0.0004782969754103918,,,
6.57,0.9781088370611175,0.025151272952270563,9.898502527092122,0.0007470629928328497,0.005539578118899193,-0.00785007515985788,,,
6.58,1.0172273312596043,-0.01200474560522181,9.80030028137963,0.012919305189909365,-0.001330963163443806,-3.8653858022166376e-05,,,
6.59,1.0212981056716752,-0.11014068692629148,9.798656603732754,0.005916199847227021,-0.0041447267746638735,-0.0021443758140013572,,,
6.6000000000000005,1.08547628182572,0.05701272004759144,9.862499523608056,-0.0012755866701933366,-0.002197355325581618,-0.0020207498078747953,,,
6.61,0.9702613440485678,-0.06222082441542162,9.80574727966074,-0.004173604953423725,-0.008818525592715745,0.003097013348769529,,,
6.62,1.0317297790446718,0.07503963792141584,9.803233081582263,0.0024805029481163527,0.0005635628963740083,0.0007308121943723346,,,
6.63,1.0572166794374838,0.028761459342535718,9.853020554759876,-0.00027819852523897765,-0.0027876505427726754,-0.004838769493985296,,,
6.640000000000001,0.9797041110691155,-0.041100376195084394,9.780451411878527,0.0031996198334383213,0.00498313934493505,-0.00254031216164575,,,
6.65,1.0341720717872318,-0.06170555697648552,9.821403891453041,-0.002451647895888879,0.0020094782430322075,-0.0013939408692108914,,,
6.66,1.0705830206853324,-0.02228603868310995,9.804169814520257,-0.005266526311725815,0.0002660225514767489,0.006476092011130901,,,
6.67,1.0336660628268437,0.1019415833207212,9.90813937262352,-0.000537638823585078,-0.0025901371690353467,0.004348483597426766,,,
6.68,0.9780990409787158,0.04831441532662434,9.854730026092177,0.0022822945542926637,0.002434768338854082,0.010614149416845294,,,
6.69,1.0285477676093753,-0.015652018543569218,9.912085981166127,0.0058377520799556765,-0.0026048992019186115,0.0020259322432951005,,,
6.7,1.02976904579694,0.008090647230249144,9.768820007453042,-0.006712423039007801,-0.005436950110012269,-0.002823692215056711,,,
6.71,0.9878087993013749,0.021735532104500216,9.828203542183761,0.001981973025050941,-0.007121517050211308,-0.0003082110146047259,,,
6.72,1.0493628830872421,0.019747622908840086,9.800421308590604,0.001808311931897768,0.00999423926741166,0.0019120103537218095,,,
6.73,0.9853406526928777,-0.018688119468108014,9.84125885537634,0.0002441580965472531,-0.001156773503382509,-0.005217233984684199,,,
6.74,0.9718684762457025,-0.017466761853574878,9.828386601498877,-0.0018309463743000028,-0.0018850679303821847,0.002305074277071027,,,
6.75,1.0644706728262263,-0.014960586761302545,9.85660516026491,-0.0017080015071696051,0.00186047861799241,0.0038786514880617836,,,
6.76,1.063290850158991,0.025673023122224387,9.866086781144055,0.0005079129567110987,0.00022469613522234084,0.007317544642257632,,,
6.7700000000000005,0.9873962715298603,-0.04142038893484328,9.845721569897517,0.0030763984513272674,-0.005120532496320022,0.0016261871829334582,,,
6.78,1.0153000612885608,-0.12076400578017353,9.82567030053706,0.00021341083575766862,-0.0018014647141150956,0.009079571372886341,,,
6.79,0.9592100850745563,-0.05123112856023064,9.706040210084032,-0.0014045833308707037,-0.0029782177706300047,-0.0005498858816712811,,,
6.8,1.075383866974188,0.033030876116848164,9.840542836213364,-0.0008530652676993111,0.004130948340534319,0.001901210700820742,,,
6.8100000000000005,0.9790864980540771,-0.09581243387422758,9.814584275305215,0.004773218085863043,0.01038269344771545,0.0023080517309473796,,,
6.82,0.9817322242439848,-0.0692482604142107,9.864247744815279,-0.007823080261921342,0.001751725507024441,0.006088558031314561,,,
6.83,1.0418139726616433,-0.020983083596927875,9.864897032677339,0.0018546918556414998,-0.004890619209302959,0.01125206161187513,,,
6.84,1.0024160310194743,0.028787615022495473,9.715719285865212,0.007382354413904646,0.006343818723272909,0.002149168935633191,,,
6.8500000000000005,1.047938551736888,0.01792575908037814,9.804510821517962,0.0037356115271967015,-0.005043152349362777,-0.0010437846182266303,,,
6.86,1.076347157160615,0.038732884535010136,9.80133122489421,-0.0026678817175052032,-0.004227983012288361,0.0056631978323274535,,,
6.87,0.9700007609594802,0.007835631951797628,9.873992340531714,0.0005587727485344995,0.004050318484324638,0.0004784491525510377,,,
6.88,1.0093072199503044,-0.05886231155659283,9.887508867381008,-0.002832602234894352,0.0007488590885752961,0.0016434196643703262,,,
6.890000000000001,0.9673608468444169,-0.04045515719116604,9.905793611952035,0.0020082877131724027,-0.0060457517068342095,0.003526641436743459,,,
6.9,1.0126942984202727,0.1627023201122091,9.850906192067113,-0.0009031242353318225,0.006100139588935521,-0.007205180836464228,,,
6.91,1.024716007819055,0.08972142473405365,9.83084003578201,-0.007666505223240395,-0.0029795898220529886,0.009272590204795185,,,
6.92,1.0388034798160386,-0.051942805475625894,9.802387859641048,-0.001798501355749067,0.0008059894202699809,0.008690980664693267,,,
6.93,1.0726211506399586,0.012800609105456424,9.770067761997124,-0.005639662569967206,0.0016662601060688166,-0.004727355489664472,,,
6.94,1.0087216489465698,0.00520752230930885,9.779770300231865,-0.004121311671794317,-0.0014706053228390934,0.004518251437620269,,,
6.95,1.0730759385206878,0.020352671738527596,9.840332829749608,-0.0027309737677852467,-0.0063545349792225965,-0.0005543854416457379,,,
6.96,1.0404967792490283,0.006831185331367144,9.731654900713743,-0.002928385141337515,0.005022537758030779,0.0023960752390206974,,,
6.97,0.9491495543448507,0.10779105907990758,9.835202913384261,0.0029216697965670398,0.0009976237802256723,0.0001620226691990696,,,
6.98,0.9836213159089303,0.09608374925329703,9.886810293480886,0.005109686005543383,0.0018814459585910536,-0.003016586951808423,,,
6.99,1.0838765095870138,-0.05215663290058747,9.850814339907531,-0.007196949527322844,-0.011204294253237598,0.003591456013265574,,,
7.0,0.9795450366402546,-0.10945837856486366,9.863680475147353,0.011600403855253946,0.005947801292900309,0.0007134105736716376,,,
7.01,1.0204422653348473,0.034385312839195666,9.892756400991743,-0.0007176785941284936,-0.0008291114213771285,0.0035030740338226826,,,
7.0200000000000005,1.0476938160139415,-0.016653822100563348,9.830645737746561,0.00789916164877194,0.005047603512214431,0.004387052867180441,,,
7.03,1.1059554535011464,-0.02932228811132085,9.917798672431468,0.0037125772176777525,0.015355130611072947,-0.003962409633912389,,,
7.04,0.9855327373891329,0.010939891410027386,9.856511702648948,0.010750694920875093,-0.004341873416497669,0.006524592593469421,,,
7.05,1.0781231502340998,0.025232391611032377,9.788600182903783,0.00803879402627099,0.005146624656577069,0.004997922598951887,,,
7.0600000000000005,1.0302173843604476,0.0013054005022185653,9.83271321038803,0.004203925671263209,-0.0008443257352751122,-0.0022426248767632067,,,
7.07,0.9675704177586204,-0.04760181268261461,9.84775661212747,0.0008652208178239634,7.671896644374614e-05,0.004504065667730555,,,
7.08,0.9886339537041561,0.0632830084172674,9.823264458647625,-0.0011671349239075449,0.001411931186662262,-0.007182551011875364,,,
7.09,0.980473277513854,0.03905363993459165,9.749778903546893,0.0065878709846657795,0.006555682831795674,0.00015272331088125824,,,
7.1000000000000005,1.0345906383713155,0.04595435424255133,9.813310540597822,0.0053388776026309075,-0.004355743975653358,-0.00038801146666589664,,,
7.11,0.9800331767837513,0.007132359959740172,9.894548452628277,7.943533941417861e-05,-0.007356245799562016,-0.0034135341114340783,,,
7.12,1.039729971068527,0.08220582066971348,9.856336249965718,-0.0009344827532562633,0.0028309198342514204,0.0008025068220662683,,,
7.13,1.0010857391317898,-0.05792295528476318,9.907072442212316,-0.011696039587478318,0.0029892960013963464,-0.00031872468898768444,,,
7.140000000000001,0.9994829634274194,0.07461575780589064,9.800943445389997,-0.0024003457701420507,-0.0016519711945976517,0.004069236929061191,,,
7.15,0.9979072108853565,-0.08869294652679427,9.793365090955911,0.007406669282322597,-0.0006261160543224427,0.0042554364185191105,,,
7.16,1.006928939641348,-0.04297488480866348,9.92052847249377,5.904071474459674e-05,-0.0032168493976356344,0.007480711831776698,,,
7.17,0.9838819820566308,-0.039736367188699835,9.837162334200844,0.0010013505204408985,0.00029805673951607196,0.01245834544697744,,,
7.18,1.0368124123176186,-0.12890269813754002,9.852964947171577,0.0011893999724479941,-0.0007827498782427117,0.0032297365469808534,,,
7.19,1.01856608561626,-0.01263060465276945,9.867302210488537,-0.0017104039859725047,-0.005738431678195878,0.01711890726311196,,,
7.2,0.9842071278109383,-0.004992854376996177,9.76186698745623,0.0015823420752571096,-0.005666127753446676,-0.00021236471425005454,,,
7.21,1.0722532332885562,0.013600478418903687,9.86507047622874,-0.007856024191959313,0.008184475849145063,-0.003959406554709376,,,
7.22,1.0964280407146934,0.04107719329907431,9.865516637089232,-0.0032749239045419074,-0.00024205077590238537,-0.00035460705322429894,,,
7.23,1.0214519785752647,-0.022493612954277993,9.734719474671378,0.00660892075492294,-0.0014055357827468058,-0.000424001997511185,,,
7.24,0.9919836383585117,0.00792297881833841,9.791962183085275,-0.010275877792370217,0.0010356490160413805,0.004595514989784109,,,
7.25,1.0100184087661184,-0.06739514375950044,9.841096777044463,-0.006322661841567943,-0.006136152983438297,-0.001753489682520806,,,
7.26,1.0621969535445779,-0.028130547521845857,9.814256679411177,0.01077346257705623,0.0007623124859435697,0.0036949725523741303,,,
7.2700000000000005,1.0015149627395612,-0.03981858338183889,9.72732967799914,0.005843702659617791,0.0012415485287818957,0.0011041700339329333,,,
7.28,1.0131386649081873,0.026807213113052758,9.758914496346007,-0.0019494066577690275,-0.0066815143144626525,0.010857546412433732,,,
7.29,1.063782776592665,-0.1201346320567682,9.760961918668,0.00033827163321256855,-0.0033622010603621237,-0.004621911040384442,,,
7.3,1.1172381118825245,0.0056269956991289605,9.860390816143154,-0.002460074746161069,0.002611370735890012,9.783619508994096e-05,,,
7.3100000000000005,1.0058328413146251,0.02055009799126299,9.755200121746984,0.008985139299254912,-8.805392638062102e-05,0.008404721043902122,,,
7.32,0.9662290121690591,-0.056158256201409656,9.778554988920009,0.0022514883633241944,-0.0006700834904087696,-0.00032205909615590266,,,
7.33,0.9692965403557361,-0.07332981348654212,9.834225804976466,-0.0013279338979430007,-0.0044280349617913115,0.009735447430658049,,,
7.34,1.0158837160903633,0.053502146696346266,9.809987390865864,0.002223881418993284,-0.0012773800812816744,-0.006488111547590613,,,
7.3500000000000005,1.0914169153131956,-0.016757680351620795,9.873970910981647,-0.002760143612307797,-0.0018242219078988232,-0.0023342617996167736,,,
7.36,1.0817999241381697,0.005570467372533786,9.855002676334044,0.007790920735524895,0.004781706484495115,0.005826712680681427,,,
7.37,0.9489136326481269,-0.044783955975834185,9.786455593199431,0.004637668468128997,-0.00014674029124974299,-0.004952562168152974,,,
7.38,1.0105627893494387,-0.08470561678593892,9.83399217559651,-0.007276862519935924,0.0016441374669230644,0.0038898131301703678,,,
7.390000000000001,1.1153974246673442,0.03239366447486712,9.815504287208874,0.00509035046637243,-0.007988319404725892,-0.0028123630184054274,,,
7.4,1.0366571266037554,-0.11791248313739637,9.834791960753305,-0.004101316460592103,-0.0004934647242336822,-0.0033886817902363175,,,
7.41,1.0412124068727595,-0.009033628816630519,9.906668295844065,0.0010336726705081106,-0.004843214024807332,0.0007655707208635855,,,
7.42,0.9527881801491634,0.010306862735272001,9.866142512315763,0.013345980183464088,-0.004109179953022023,0.0006610271316240864,,,
7.43,0.9912120737780893,0.0006056850565612035,9.85573452672398,0.0007331257778574462,0.004431629584365161,-0.0010848975187738876,,,
7.44,1.0693087023945356,0.016924892682054125,9.836048504005051,-0.0005746832037857273,0.011133338793656848,-0.0020850432537103973,,,
7.45,1.0348966588484207,-0.04751095351210663,9.925931037431065,0.005434131643996018,-0.0043917493942057205,0.0045629749671561425,,,
7.46,1.0328847860638277,-0.03583123809873694,9.874558210861407,0.002946526955522051,7.849356942976138e-05,0.0017904014437883562,,,
7.47,1.0415527246299825,0.001469383074622974,9.83960466665125,-0.0022050795799378174,0.007468831203812463,-0.003252099716742735,,,
7.48,1.0413818109439872,-0.02601203711507165,9.924627363472464,-0.0035174126861192033,-0.00467631630880166,-0.0028490903163091268,,,
7.49,1.0361732525475305,-0.07865253297843208,9.81272357526211,-0.009761829114271425,0.00020210677064045257,-0.0005010742937813129,,,
7.5,0.9455971628034073,0.044280470148702934,9.771266655080751,0.004984718450141076,-0.004505204119939023,0.01000785688947713,,,
7.51,1.0574775269463073,-0.06040239354370141,9.790795872389484,0.0040276260261215505,-0.002311890653550834,0.0011532874648931724,,,
7.5200000000000005,1.0836119430886049,-0.047434443668497826,9.84121468860877,0.00577313896826153,0.0030455874419280018,0.0012019366623966376,,,
7.53,1.005554705957367,-0.09694077312604658,9.78383775036674,0.002591796132873668,-0.001689410944711181,0.002374635392831132,,,
7.54,1.071962680481703,-0.06936615545311373,9.824840984888366,0.0019435548170560887,-0.00452079968787258,0.009157385569637085,,,
7.55,1.0654293400806574,0.0045066663544377755,9.926361588966428,-0.006494476398050711,-0.001038631405528409,0.003831684844670305,,,
7.5600000000000005,0.974272247660304,0.005035727090886417,9.781320875310605,0.0044527865913712664,0.0042891738406445334,0.0033616670056416417,,,
7.57,0.9273601092467527,-0.05833967605830173,9.864885500160657,0.001105993217561829,-0.014470013088462439,0.008214151919341203,,,
7.58,1.0268328253126917,-0.05095373320000226,9.886397779878331,-0.0023877000645344945,-0.004442260588021073,0.003791763255070181,,,
7.59,1.1090519229621147,0.07117935889864432,9.854635574945204,0.003311928294251599,0.002957494660424125,-0.004284918376846745,,,
7.6000000000000005,1.0522074168575992,-0.04670367340717641,9.852573903339827,-0.00013733813803668655,0.001506041635571072,0.0025905173250323006,,,
7.61,0.866348486458935,-0.0010554144147409683,9.868757647614961,0.0032296417416922685,-0.0015129297310428982,0.01021080845965203,,,
7.62,1.035568656456083,0.011883665009655315,9.888874594702527,0.002812964998482994,-0.0054900887670710176,-0.010191687068898113,,,
7.63,0.9961439548990959,0.028047276294055824,9.81899518342911,0.005005891861408648,-0.000256359120398635,0.008440330351310924,,,
7.640000000000001,1.005239164643967,0.013380741328384403,9.861944253226767,0.008508009363155966,-0.00953318653167139,-0.0002920413727657881,,,
7.65,1.0624258052694253,0.06729482398893241,9.848653575632103,-0.0004635208221074347,0.0027855918433722236,0.0063435133761584155,,,
7.66,1.0020169160666346,0.00651536560887731,9.895676363120597,0.010452294966372257,0.0027130247961764595,0.002220694483327966,,,
7.67,1.0172962411981046,0.017869827859681144,9.830866357876026,0.0019482024951119413,-0.006289381322654374,0.008485285982455796,,,
7.68,0.9629907636425661,-0.03160558802265063,9.84152966304259,0.010954934399443193,-0.003113414924261637,-0.0013300790698019815,,,
7.69,0.9924591541333103,0.07294485838056564,9.696032650324698,-0.004013690060742934,0.012656443545797758,0.004954410367458185,,,
7.7,0.964700752533039,-0.012095899108738577,9.840022728303392,0.00523062622952803,0.008197510014112817,0.003942758406396078,,,
7.71,0.993010584849352,0.02935422210491021,9.801737365156855,-0.004166687479945147,-0.009799544359782225,-0.005825641972502004,,,
7.72,0.9751777421937864,-0.06888948838504355,9.852311826368735,-0.0049970091291201765,-0.01671833151012372,-0.003219558872947329,,,
7.73,0.996407017613929,-0.040272474393598275,9.912626233965458,-0.0020677127964457507,0.0034046173159959893,0.0019050870015956914,,,
7.74,1.0178847637163702,-0.05176901444240185,9.83371086742096,-0.0028254806344870844,-0.00014987842872714742,0.000818751836881559,,,
7.75,0.97276860334042,0.03959471698502976,9.85799202400107,-0.0012403136707112412,-0.00027253476482344996,0.0015808873924901819,,,
7.76,0.9766204531368363,-0.0064751885489418085,9.80559941225963,-0.003724669178100496,-0.009113836651332623,0.0002069632323068464,,,
7.7700000000000005,1.0483485329791862,-0.04473296766894298,9.962685434607897,0.005428428268263662,0.005521650663302391,0.005976215060368793,,,
7.78,1.1126432487469287,-0.049350099173627114,9.708613130717067,-0.0012306280417644154,0.0017910928777376883,0.002757584858739892,,,
7.79,1.033773630548389,0.056045500133493624,9.855752878723123,0.004994564637955108,-0.005697813709263795,-0.0034769684460801836,,,
7.8,1.1007056961512245,-0.004954923242646607,9.805488540827692,-0.002106972467735591,-0.0042456156081912885,-0.0015447951052292089,,,
7.8100000000000005,0.9558426098698171,-0.08502102011102543,9.826899781117278,-0.0019646293516019974,0.0045357964272164765,0.0034653832663345827,,,
7.82,1.033265884003899,-0.047156020377722534,9.830598579211,0.0028050055181572018,0.0025809786985633767,0.0015305408674081726,,,
7.83,1.0739561889662104,-0.009600534554602864,9.876292355925882,-0.0014492610429457514,-0.01006294183284321,0.0033417949400926135,,,
7.84,1.0562662031573313,0.018767366590378476,9.85775933307187,-0.0007429348297749365,-0.005033731257227962,0.004758641345218903,,,
7.8500000000000005,1.0413223708099137,-0.03804495454219132,9.892121209459601,-0.003414327572738003,-0.003917616893955202,0.010182126061708326,,,
7.86,1.0634290968866957,-0.027900465294551133,9.851019035482176,0.0017739612226191916,-0.014728069324886892,-0.0025323697473669084,,,
7.87,1.0174576691445358,-0.02783057382796531,9.84900512824152,0.0066474115647395995,-0.0026076789232696374,-0.0032882739806143245,,,
7.88,1.0362425829255524,-0.026331166678390173,9.828846824958903,-0.00045886859576539326,0.010209189000054929,-0.009203521304989725,,,
7.890000000000001,1.0005833048433677,-0.010184451282419602,9.79759287538586,0.005499129160641415,0.003066288393598197,0.001761226907557297,,,
7.9,1.0064663122328152,-0.01559784171158235,9.831410667317607,0.0006081348593711867,-0.0019399955075839975,0.0032622465729619642,,,
7.91,1.0576606032413933,-0.07151300737992884,9.784116805038341,-0.007742590147417618,0.0033319870017879975,0.0032516164659523155,,,
7.92,1.0452633757966385,-0.08147491191817342,9.925897406144006,-0.0020442545407267886,-0.00015897096444372066,0.00627192330339186,,,
7.930000000000001,0.9706510122101965,-0.03731621792563334,9.845608588730043,0.01528736537732353,0.0005056237142601215,0.010031805753153591,,,
7.94,1.0802836572595977,0.008400501824725936,9.787190211418466,0.006298768054091176,-0.008490551708240236,0.01000437561838546,,,
7.95,1.0300002654109128,-0.14251117736490881,9.819624695248407,0.004269739104614702,-0.0021851193651988335,0.005575029054967867,,,
7.96,0.9774987916143852,-0.07529911863938037,9.833077729847618,0.001157828336449574,-0.002741921755311607,0.008136455733210963,,,
7.97,0.9774896312430471,0.005658280366617472,9.84004849855818,-0.006783579760680417,-0.007595150918342562,0.002059555081243157,,,
7.98,1.1190599999343482,0.018963490594940548,9.750368258742768,-0.014552440325596688,0.002665267965021899,0.001518932585359005,,,
7.99,1.0770632984755184,-0.05403589603557208,9.854160624892925,0.005230867315139313,-0.0032373181910324094,-0.000130427851155327,,,
8.0,1.0212631415549196,0.017133817328016443,9.835933299774403,0.005869981688797432,-0.0033096759463351498,-0.004641976027315548,,,
8.01,1.118848768405659,-0.04023168682712232,9.808227895814111,0.0006709833946390782,-0.0006640944517300941,6.658178755858564e-05,,,
8.02,1.0191283051525495,-0.011988111571408697,9.845390966351038,-0.010787437294936579,0.008404381535039248,0.0012635584323272124,,,
8.03,1.0490311309723492,-0.07890506707670121,9.813099986937535,-0.0023615793316020726,0.006348618822542726,-0.000929068034179414,,,
8.040000000000001,1.0579039993470045,-0.04252102263365976,9.8140190530173,-0.0002277508260034298,0.0054192256341465015,-0.007449263295150593,,,
8.05,0.9542168222362784,-0.10736525828449084,9.782274894011927,-0.0030580002559605357,-0.009072406270451944,-0.0016707387330733448,,,
8.06,0.9192642759533293,-0.060899436188384067,9.896671019995509,0.0030179403514055143,-6.26616391373614e-05,-0.003013892781395572,,,
8.07,0.9431957520477638,-0.06695780377671404,9.834489508655198,0.005340883898633342,0.0035118370856766024,0.005153061812416665,,,
8.08,0.9831221567966029,-0.008772508379800599,9.820582873498136,-5.948817473751212e-06,0.009185639484799064,-0.006810001185018063,,,
8.09,1.008266159203887,0.05058744535980784,9.763355425248323,-0.002218737126331252,-0.0036451924878381976,0.0008835513897300774,,,
8.1,0.9402021420196891,0.01976430301690197,9.869964364125655,0.0035418766250897384,-0.005351868371455407,0.0024325539539364754,,,
8.11,0.9750279880215457,-0.026629833038575634,9.944323396358543,0.00147847688798128,-0.006937632879935867,0.0029016767033195694,,,
8.120000000000001,0.9524102036968345,-0.06995051962575059,9.78459384320256,-0.0012215472609784176,0.0036848449779460076,0.004891990990084196,,,
8.13,1.0461497664123665,-0.06494622827952712,9.809584282228217,0.0023600055344159417,-0.004141599926942065,0.0006081677984945079,,,
8.14,1.0420679346264974,-0.027438634060065102,9.8479529794551,0.008963642280097842,-0.0018592939949349878,0.007896689048596032,,,
8.15,1.0479685033653678,-0.08336209967433833,9.781543148536823,-0.003167979415349482,-0.005274174584663917,0.001548551269465929,,,
8.16,1.050732202404091,0.05275792083523614,9.852058754436253,-0.0012283977802660493,-0.01141120621814937,0.00235294787708669,,,
8.17,1.0212885096847495,-0.000853562323052115,9.941962014885165,0.00720298273096536,0.0029253045912499293,-0.0028103856503579987,,,
8.18,0.9943502625401628,-0.01474223034642511,9.797879643799481,0.0035023226249255904,0.0007845442460785227,-0.003441538965273463,,,
8.19,1.0798408354548061,-0.0048844833095569844,9.750196442662887,0.0007432857082751527,0.0004060322796145242,0.006863961807178703,,,
8.2,1.0031261798436693,0.03139691337236036,9.84600709933851,-0.005575273045187897,-0.00807583386741257,0.007612799350746743,,,
8.21,1.0797992089190884,0.006145461520236149,9.911435336059,0.006283049245208033,0.0024181436473986054,-0.002556557443668359,,,
8.22,1.1065714375516171,0.01681507161041365,9.817358061269418,-0.00234135002652649,0.00028391890756928446,-0.006355295424192274,,,
8.23,1.054983663767643,-0.05767854073470135,9.855180405441214,-0.0016081016867907976,-0.0023220935636235184,-0.0017845493638253243,,,
8.24,1.0119385284409599,0.0844689773008677,9.905902981352432,0.0027723947749772834,-0.001126471327824762,0.006221005953464425,,,
8.25,1.0764985197053778,-0.05149091911037647,9.83277805661839,-0.008109791147840401,0.004615510551304475,0.012325121288504277,,,
8.26,1.0240041312311543,-0.11625050624515082,9.86709452582885,-0.003520445830745402,-0.0043167472083223,0.005132881948955019,,,
8.27,1.0327277062756361,-0.034405438766930085,9.804169718369916,0.0016291802761041639,-0.0030473277625618373,-0.003546185668015037,,,
8.28,1.0033718409260821,0.006979631162759207,9.827744826659018,-0.006067542991240926,0.003945323106877697,-0.011694057184716668,,,
8.290000000000001,0.9976817422485783,-0.0410099227276958,9.84405894389357,0.0038083090390136774,0.004633824041305176,-0.001562024366760801,,,
8.3,1.049329116866674,-0.0002090806059269444,9.751073031240837,0.01050270127717055,-0.008193875636200998,0.004097486361548575,,,
8.31,1.0394979972098874,0.0037818391164538574,9.811921155891918,0.0051362632557025115,-0.008801837369715477,0.0016708560566303854,,,
8.32,0.9918062661723771,-0.04386489710335158,9.858087389372676,0.006387392713598416,-0.0027162788091843306,0.0059034054496288875,,,
8.33,1.02248703327223,-0.05463661046190043,9.823752395337946,-0.0004974294539580747,-0.004483299562527233,0.004142414643279168,,,
8.34,1.031732309385238,-0.0895324849134709,9.754073700238031,0.0031234222660287718,-0.005076432143972673,0.00351020577550162,,,
8.35,1.0590465789054595,-0.07354764187027796,9.766073137271189,0.009372158411976476,0.0007578539148122951,-9.620328336635469e-05,,,
8.36,0.9733029773676869,-0.03552204244536398,9.777121383194332,0.0054170608704529515,-0.0048837557680316045,0.007467672941081335,,,
8.370000000000001,0.9999685540114994,-0.06216750918086574,9.815334920599309,-0.012120833887507083,-0.0016038428833700345,0.0011494040443492072,,,
8.38,1.0612371373273983,-0.10431524639916898,9.894743318043176,0.005102996474988281,0.005260217818493313,0.001736393119979313,,,
8.39,1.0706948417051378,-0.08356220174534526,9.872302378260226,-0.0028558138104997264,-0.009257009162114683,-0.0036207025908218038,,,
8.4,1.0202765569314636,-0.051214960410880174,9.855453676584789,-0.008041187775020088,-0.011635487718079308,0.008861937170717881,,,
8.41,1.0651900064700717,-0.06246484179569038,9.836500017826472,0.006097535301006619,0.0010960030414530271,0.002741115480917392,,,
8.42,1.0747577040656298,-0.046535623760061026,9.83820892243323,0.0009107568085380418,-0.0023638102383552128,5.097244289623947e-05,,,
8.43,1.0236434118914246,-0.008279625200723624,9.784228617873273,0.005008979549502237,-0.0058819260388312915,0.0009088327772641305,,,
8.44,1.0052359763639975,0.007905180632960794,9.730694802989133,0.005454549074647291,-0.004384951738060821,0.00809981647388527,,,
8.45,0.9960917537741923,-0.012442179286700526,9.93233930200342,-0.0003866910439683422,0.005194249423367294,0.0021952254278228005,,,
8.46,1.0407709415146744,-0.006502070529431275,9.879042581315005,-0.0024276580642652564,-0.005920242615095927,-0.0011928809518851088,,,
8.47,1.0249855188162045,-0.021040939277516473,9.872163743823558,0.0075236584991076,-0.005879191686175043,-0.0016697439580696627,,,
8.48,0.9481880290843573,0.0915186495379552,9.85188347495609,0.003399011600257889,-0.007701041925155241,0.0019941500549656268,,,
8.49,1.0454623992206542,-0.02263788452672125,9.890435281241318,0.01255915562821415,-0.00573531413546976,-0.003110436229883484,,,
8.5,0.9761121967235712,0.07030995800082454,9.888767765851483,0.0003223609110317577,-0.0008172016779956286,-0.0020827181309836067,,,
8.51,1.0645013578871592,-0.02899509120542769,9.82364617302725,0.004043948857646284,-0.001939974690416106,0.000825170032510768,,,
8.52,1.0205287602764537,0.029767770689653833,9.91897465377419,0.0039274311612304096,0.0030165711181213348,0.0010007296894943782,,,
8.53,0.9846101068415641,0.022699311611755757,9.845212041230027,-0.006113143243748747,-0.0026403481171279903,0.001585514882592232,,,
8.540000000000001,0.994477106648576,0.06408677972710637,9.86064195184511,0.00786587458944324,0.0003171263082607978,0.002406939182125389,,,
8.55,0.9731701091194875,-0.009403523340171664,9.837302696283771,-0.005835569420171166,-0.0036976373488519744,0.00038358700741818815,,,
8.56,1.0406739772027862,0.013067505599285307,9.807584075901739,0.0033443480127094243,-0.001910394646742585,-0.012348100124274784,,,
8.57,0.9957648984024229,0.04394943200711893,9.752559712168615,0.0015634560020777013,0.006926306070926436,-0.0018030647650524034,,,
8.58,1.0201074540213844,-0.07520081286139606,9.918011557083178,0.0005833368650169286,-0.0007668657860299093,0.008771502327528113,,,
8.59,1.053073919732274,-0.053781436624837,9.804286103795633,0.0034746565226164935,-0.0041206052753147,-0.008586216560602634,,,
8.6,1.017337960068046,-0.08401063305624047,9.917464087678185,0.0018839381888157635,-0.005525875283717878,-0.0014931620733122687,,,
8.61,0.925530120606304,-0.06497309433902519,9.887466160127033,0.012158930727461957,0.0026319825659947924,0.001539787306894854,,,
8.620000000000001,0.9984020312173042,-0.05782479067881812,9.939638294966986,5.625649067812549e-05,0.00957814915031252,0.008967597548050306,,,
8.63,0.9329601784326863,-0.04329761978796459,9.803197743791308,0.0006007681794713026,-0.0013015712655687676,0.016981195476990715,,,
8.64,0.966138606276262,0.0014484967832194984,9.867475387123388,0.0009921399776540191,-0.0004490971110932099,-0.0032240444715329357,,,
8.65,1.025324309730134,0.015569949808718597,9.853030029213555,0.0038510045195604575,0.00606303950318116,0.006684832709571709,,,
8.66,1.0235647306748719,-0.0685879175941639,9.806649736264443,-9.815575958707677e-05,0.00026172915670723664,-0.00039166380749697553,,,
8.67,0.9732133400407824,-0.06940993445601686,9.754091112047222,-0.00017475351887284436,-0.008348327210351525,-0.003002628420786961,,,
8.68,1.000304906357785,-0.07679586546957169,9.855637609424933,0.004701115318028436,-0.003747135098876993,-0.00018513653805000887,,,
8.69,1.0468714885069539,-0.04569975486173396,9.797513304420134,0.006982492390931452,0.0034209386935639356,0.0050077500117195976,,,
8.700000000000001,1.0662822310697047,-0.10886393626836814,9.904341777339654,0.002960310582918711,0.004053906920028674,0.003935808895581813,,,
8.71,1.0224462412340078,-0.02376546061810273,9.855007218844309,-0.0005587395445227606,0.0033393805003255617,-0.005932283222761002,,,
8.72,0.9929212069102862,0.09224116242383233,9.805345976821378,-0.00019341861531739003,-0.005412904666750381,0.0036792283644291194,,,
8.73,0.9831867554928903,-0.019280546740352504,9.879093326801753,-0.0024938170940740794,0.002943055596326105,0.006111146577801783,,,
8.74,1.0727478047359646,-0.002972950254097986,9.998712953848838,0.00627266848271041,0.0006243881220341328,-0.002379622070408676,,,
8.75,1.015147043706293,0.06131634884500169,9.922126730781311,0.008391645502201147,0.0029259615336480983,-0.00427830103147786,,,
8.76,1.0443580908912835,-0.07207011890264989,9.762276440330961,0.0021957934228861928,0.0016159972363487523,0.006516885492404024,,,
8.77,1.0448568120193047,0.016579299287137417,9.78741737075038,0.0004751165765766682,-0.00853558392817244,-0.008016845647000979,,,
8.78,1.0570321354921537,-0.04765621968954794,9.880274925107152,0.006541737889400194,-0.004096586623115989,0.004951555472776495,,,
8.790000000000001,0.986942163569318,-0.1022939437313412,9.842815470222122,-0.0013543693985788034,-0.0032004450529356586,0.011876715589227628,,,
8.8,0.9437071508633664,0.009143556768573554,9.786909638142761,0.005541307046336622,0.0004921561808753289,0.003896721745903068,,,
8.81,0.972755519119887,-0.04827939566441618,9.883012525367294,0.009853988608637815,0.0014015390861209357,-0.002487103603857164,,,
8.82,1.0369469261231035,0.11137360221688049,9.841771140535945,0.008309204296967998,-0.00470164682919356,0.0017895697418180661,,,
8.83,1.0509782603062772,0.009866415413143205,9.79833056599444,-0.003047587285652998,0.003941422015513293,0.007957754063250725,,,
8.84,1.095607177906096,0.0801965241626434,9.843380971816128,-0.000555996221157967,0.005754954693892344,0.005565346409257934,,,
8.85,0.9708772370666204,-0.061681783275945576,9.861246510067815,0.00011362669258000195,-0.0011321497737034878,0.007362666823550973,,,
8.86,1.057951857249252,0.05649366242092158,9.740073194681331,0.002266989586106004,0.002473442611986034,-0.00563292928343842,,,
8.870000000000001,0.9872552179345014,-0.052024258116445954,9.837734908552994,0.00913926984347032,0.009112947023324505,-0.0020714377653664115,,,
8.88,1.0463278625246788,0.01793989260711576,9.856031288575736,0.00299489817369617,0.0005187125122566403,0.010437850604032099,,,
8.89,1.075123325718403,-0.06300769487991335,9.876436054044026,0.005461866872557261,0.0005748364357589446,0.007657121852513647,,,
8.9,1.0294037017149518,2.3386053812538e-05,9.842712027233851,-0.009091220428998344,-0.00140199196952937,-0.0013412528722728536,,,
8.91,0.9606776010903721,0.061700914236976136,9.861860375926721,0.000850844595277261,-0.0038240167555121315,0.003480847923143701,,,
8.92,1.0695718046658758,-0.051348292177347044,9.836408581386168,0.0053403324942558625,-0.01068000564542065,0.00171215118797298,,,
8.93,0.9985354314726231,-0.0166914928877517,9.811568572181404,0.0016881230260364782,0.00861813610211359,0.00038038763035724496,,,
8.94,1.0345855504547052,0.08973732092045565,9.809149221081372,0.010073376744644844,-0.0009733849668644638,0.010909481129324631,,,
8.950000000000001,1.0575100562473159,0.005355418129121084,9.83336846590567,-0.002120207199396053,-0.0006210422501782362,0.006486807295100121,,,
8.96,1.0193444284501665,-0.025831140253092882,9.82411087329111,0.005962383067915266,0.005125807275499279,-0.001335752568841852,,,
8.97,0.9865706071276256,0.008967945983355619,9.913026603237862,0.0067299515415628,-0.007259261060899558,0.0006796201500406894,,,
8.98,0.9734698222655244,-0.023375626095762915,9.916870499801767,-0.006113003243915086,-0.009094326466400952,-0.002142770767168012,,,
8.99,1.0343655301287997,0.021037741032037843,9.858522421743075,0.006878427016155083,-0.009815427971169646,0.007941682691794686,,,
9.0,1.0043952339976854,0.02657471549024338,9.770478728661839,0.001024783485045351,0.00018135385294506786,0.0077787551874920905,,,
